Multi Channel Experimenter Burst Analyzer ASCII Export


Parameters:

t	12	12	12	
	Duration	Count	Frequency	
[s]	[ms]	[-]	[Hz]	
421.27380	421.20	16	35.613	
1115.09720	93.60	3	21.368	
1193.35120	654.30	17	24.454	
1289.80370	449.20	17	35.619	
1394.10050	637.30	17	25.106	
1410.20100	65.90	4	45.524	
1429.44290	356.60	12	30.847	
1488.12630	385.20	15	36.345	
1521.75630	297.20	13	40.377	
1590.37700	150.00	14	86.667	
1608.08290	98.60	8	70.994	
1668.42160	322.60	8	21.699	
1680.55790	85.10	11	117.509	
1703.10790	108.50	15	129.032	
1714.08890	76.00	11	131.579	
1731.47940	73.20	12	150.273	
1791.33350	118.60	12	92.749	
1807.75910	236.00	5	16.949	
1858.70990	30.50	2	32.787	
1869.57830	246.80	13	48.622	
1908.14100	98.80	6	50.607	
1918.86570	300.70	11	33.256	
1936.32490	65.50	8	106.870	
1971.81440	56.70	6	88.183	
1991.41470	98.60	15	141.988	
2001.70730	20.40	3	98.039	
2030.58800	80.10	7	74.906	
2046.10100	77.90	7	77.022	
2088.42560	88.80	9	90.090	
2104.66650	105.60	11	94.697	
2118.44200	48.80	6	102.459	
2124.41200	23.70	2	42.194	
2134.21720	18.80	3	106.383	
2154.75970	60.20	6	83.056	
2193.30630	142.70	11	70.077	
2241.39570	104.90	11	95.329	
2281.39960	307.10	15	45.588	
2304.03790	99.90	6	50.050	
2328.51890	341.90	8	20.474	
2380.12300	105.90	9	75.543	
2425.07280	89.00	8	78.652	
2476.05870	116.70	11	85.690	
2503.66660	83.90	4	35.757	
2519.33930	13.80	3	144.928	
2586.64940	61.80	3	32.362	
2786.53550	184.80	7	32.468	
2809.40080	95.60	7	62.762	

t	13	13	13	
	Duration	Count	Frequency	
[s]	[ms]	[-]	[Hz]	
221.90160	242.40	27	107.261	
256.90940	707.40	6	7.068	
392.35440	89.30	10	100.784	
421.25440	770.80	13	15.568	
651.19050	435.90	10	20.647	
676.55800	187.60	2	5.330	
708.30020	427.30	17	37.444	
739.42140	452.20	2	2.211	
797.25110	109.60	2	9.124	
894.78730	426.00	2	2.347	
953.52050	290.70	12	37.840	
964.70820	808.50	20	23.500	
990.98000	108.40	2	9.225	
994.42220	579.30	21	34.524	
1012.22630	471.80	18	36.032	
1115.03950	620.80	19	28.995	
1193.33200	2218.00	39	17.133	
1258.27940	275.80	3	7.252	
1267.63030	464.70	16	32.279	
1289.78560	1549.60	13	7.744	
1391.12950	462.20	24	49.762	
1394.08230	2039.50	43	20.593	
1429.42000	1448.80	22	14.495	
1447.60920	371.90	31	80.667	
1468.01220	409.10	29	68.443	
1488.09990	1890.20	24	12.168	
1501.63890	182.70	2	5.473	
1521.73550	1393.50	13	8.611	
1590.34610	1544.50	35	22.014	
1607.86740	682.30	13	17.588	
1624.79500	364.40	27	71.350	
1630.44360	325.40	14	39.951	
1646.87110	724.60	3	2.760	
1656.94670	409.10	4	7.333	
1668.38800	1562.40	12	7.040	
1680.53980	520.80	14	24.962	
1703.09760	1012.90	16	14.809	
1714.05680	461.60	9	17.331	
1724.06500	280.70	3	7.125	
1730.64860	2077.30	17	7.702	
1767.00540	293.10	3	6.824	
1776.29170	313.60	2	3.189	
1791.30330	2157.60	21	9.270	
1802.93990	119.30	2	8.382	
1807.69560	1344.10	24	17.112	
1858.61630	579.70	26	43.126	
1869.04920	2022.00	15	6.924	
1874.94610	724.60	3	2.760	
1891.02390	233.00	3	8.584	
1908.10550	1259.50	11	7.940	
1913.99020	494.30	2	2.023	
1918.84500	546.50	13	21.958	
1931.98550	342.20	25	70.134	
1936.29710	507.50	7	11.823	
1965.21390	424.10	2	2.358	
1968.44650	41.50	2	24.096	
1971.77780	911.80	15	15.354	
1975.38820	487.10	2	2.053	
1980.70340	154.80	2	6.460	
1986.06770	1447.30	4	2.073	
1991.08700	871.20	10	10.331	
2001.63860	502.30	14	25.881	
2030.55860	958.40	6	5.217	
2046.04480	553.80	11	18.057	
2071.52140	375.20	15	37.313	
2088.38440	594.70	10	15.134	
2093.29060	145.50	2	6.873	
2104.62260	554.00	17	28.881	
2114.29960	5000.80	53	10.398	
2124.34610	880.10	22	23.861	
2134.16340	2799.30	23	7.859	
2141.52790	905.80	16	16.560	
2145.51230	290.10	2	3.447	
2154.71180	1121.30	15	12.486	
2159.62700	12.80	2	78.125	
2193.26670	752.90	15	18.595	
2198.15600	2599.40	7	2.308	
2227.08450	1134.20	4	2.645	
2235.39920	1561.90	5	2.561	
2240.25920	1749.20	15	8.004	
2246.96180	755.10	3	2.649	
2250.92140	440.60	7	13.618	
2253.37700	2539.70	9	3.150	
2262.10660	685.10	4	4.379	
2267.21290	262.30	2	3.812	
2281.35780	687.40	13	17.457	
2303.99630	1147.50	13	10.458	
2313.69520	430.50	2	2.323	
2320.25650	2616.50	5	1.529	
2326.39730	3098.30	18	5.487	
2335.07100	158.20	2	6.321	
2359.67220	537.60	24	42.783	
2376.32120	441.20	2	2.267	
2380.07370	2504.30	19	7.188	
2390.97280	443.70	19	40.568	
2424.95540	703.90	18	24.151	
2444.74090	272.20	2	3.674	
2461.44440	42.20	2	23.697	
2476.02260	1481.10	17	10.803	
2503.61130	1369.20	14	9.495	
2518.77820	1066.00	19	16.886	
2545.29870	82.70	2	12.092	
2560.12710	367.60	20	51.687	
2571.44160	362.40	2	2.759	
2586.58760	1051.60	18	16.166	
2624.07510	550.20	17	29.080	
2655.64140	1175.00	24	19.574	
2685.47330	596.30	26	41.925	
2694.31900	786.90	30	36.853	
2716.50320	1648.40	23	13.346	
2742.37500	3197.80	25	7.505	
2785.52660	4452.80	81	17.966	
2793.22750	30.80	2	32.468	
2809.37570	1039.30	12	10.584	

t	14	14	14	
	Duration	Count	Frequency	
[s]	[ms]	[-]	[Hz]	
29.51000	409.50	9	19.536	
78.15590	355.40	9	22.510	
108.02960	93.20	5	42.918	
180.72340	159.10	9	50.283	
364.05660	289.90	6	17.247	
421.25120	1427.30	26	17.516	
582.39190	1794.10	14	7.246	
651.49800	94.20	10	95.541	
658.37810	38.90	4	77.121	
676.53230	20.80	3	96.154	
703.17810	45.60	8	153.509	
797.30270	66.10	5	60.514	
947.19480	215.70	6	23.180	
953.34190	454.30	16	33.018	
964.97450	558.80	7	10.737	
994.40240	530.40	4	5.656	
1012.20450	365.20	8	19.168	
1026.14220	16.40	3	121.951	
1041.27260	13.50	3	148.148	
1115.00770	803.50	9	9.956	
1193.33080	1975.60	34	16.704	
1205.86140	34.20	3	58.480	
1267.63020	465.00	9	17.204	
1289.78590	1505.70	21	13.283	
1391.05410	493.60	20	38.493	
1394.08230	1704.80	30	17.011	
1429.42090	1483.50	28	18.200	
1447.58620	461.90	8	15.155	
1467.99200	426.00	7	14.085	
1488.10510	1512.40	37	23.803	
1521.73220	1023.00	7	5.865	
1590.34360	1657.10	15	8.448	
1608.04690	531.30	3	3.764	
1624.79440	407.70	11	24.528	
1630.43840	395.70	7	15.163	
1645.12830	32.00	5	125.000	
1668.38730	1060.70	18	16.027	
1680.53990	515.20	7	11.646	
1703.09720	1009.10	10	8.919	
1707.79700	485.70	6	10.294	
1714.05340	480.40	4	6.245	
1731.46060	517.50	3	3.865	
1791.30200	1025.50	7	5.851	
1807.69390	1020.50	20	18.618	
1858.60560	531.20	7	11.295	
1869.54250	873.00	7	6.873	
1908.10670	995.00	7	6.030	
1918.84350	540.00	6	9.259	
1931.96160	425.80	8	16.440	
1936.29670	532.50	4	5.634	
1971.78130	764.60	4	3.924	
1987.03010	24.30	3	82.305	
1991.37660	570.50	5	7.011	
2001.63780	138.50	2	7.220	
2030.55600	1088.80	5	3.674	
2046.04250	532.70	5	7.509	
2071.47350	431.00	25	55.684	
2076.74990	468.70	11	21.336	
2088.39030	987.10	4	3.039	
2104.61950	536.30	4	5.594	
2117.10680	1720.50	16	8.718	
2124.35140	442.30	7	13.565	
2134.16670	526.50	5	7.597	
2136.92210	82.20	8	85.158	
2141.53080	477.50	7	12.565	
2154.70930	529.20	4	5.669	
2193.27660	1003.20	9	7.974	
2241.34530	1071.30	6	4.667	
2281.36280	1026.60	10	8.767	
2303.99390	952.40	5	4.200	
2328.45650	1024.30	4	2.929	
2359.65880	519.80	6	9.619	
2380.07860	905.70	8	7.729	
2390.96160	428.20	7	14.012	
2424.99650	1185.50	7	5.061	
2451.36940	777.70	16	19.288	
2476.02140	1084.50	18	15.675	
2503.60780	637.30	5	6.276	
2519.27500	563.50	7	10.648	
2531.75110	128.60	10	69.984	
2560.06970	433.50	26	57.670	
2586.59020	1230.50	12	8.939	
2624.04460	615.70	6	8.121	
2656.18700	546.10	4	5.493	
2685.41840	521.30	7	11.510	
2694.28770	184.50	2	5.420	
2716.50350	461.00	10	19.523	
2721.94670	168.10	6	29.744	
2742.34450	611.70	7	9.809	
2786.50790	2796.60	39	13.588	
2809.37580	149.00	3	13.423	

t	15	15	15	
	Duration	Count	Frequency	
[s]	[ms]	[-]	[Hz]	

t	16	16	16	
	Duration	Count	Frequency	
[s]	[ms]	[-]	[Hz]	
140.28790	11.00	2	90.909	
222.58010	11.10	2	90.090	
235.37980	600.40	5	6.662	
319.35000	81.40	4	36.855	
347.69380	39.40	3	50.761	
413.87100	18.40	2	54.348	
425.60930	42.80	4	70.093	
444.08470	1447.90	9	5.525	

t	17	17	17	
	Duration	Count	Frequency	
[s]	[ms]	[-]	[Hz]	
421.27370	514.30	11	19.444	
965.00440	26.30	5	152.091	
1115.02410	43.40	5	92.166	
1193.35210	704.30	13	17.038	
1289.80310	503.60	8	13.900	
1394.10060	729.30	21	27.424	
1429.44070	504.90	12	21.786	
1468.00500	23.40	4	128.205	
1488.12150	533.60	9	14.993	
1521.75030	306.30	15	45.707	
1590.36170	661.90	13	18.130	
1608.06930	278.10	9	28.767	
1668.40750	264.10	16	56.797	
1680.55640	259.90	12	42.324	
1703.11780	290.70	9	27.520	
1714.07520	203.00	4	14.778	
1731.48150	239.80	8	29.191	
1791.32280	374.90	15	37.343	
1807.71860	252.80	13	47.468	
1858.62310	45.10	3	44.346	
1869.56080	296.30	21	67.499	
1908.12700	284.40	14	45.710	
1918.86600	319.40	9	25.047	
1936.31880	170.20	2	5.875	
1971.80500	251.00	12	43.825	
1991.39080	255.30	14	50.920	
2001.65930	259.10	6	19.298	
2030.57730	313.20	16	47.893	
2046.06120	262.50	9	30.476	
2088.41430	354.10	16	42.361	
2104.64060	179.00	3	11.173	
2118.42270	165.70	6	30.175	
2124.38370	57.60	4	52.083	
2134.18920	203.80	4	14.720	
2141.55980	189.10	5	21.153	
2154.72940	86.80	4	34.562	
2193.30300	271.40	8	25.792	
2241.37220	308.40	13	38.911	
2281.38540	311.40	13	38.536	
2304.01130	278.10	9	28.767	
2328.48000	256.30	6	19.508	
2359.68370	24.80	5	161.290	
2380.10040	248.80	5	16.077	
2425.02420	340.50	15	41.116	
2476.04620	249.50	8	28.056	
2503.63090	247.20	6	20.227	
2586.61360	315.90	11	31.656	
2624.06720	57.60	6	86.806	
2656.21990	11.80	4	254.237	
2742.36950	41.70	4	71.942	
2786.53030	1207.20	34	27.336	

t	21	21	21	
	Duration	Count	Frequency	
[s]	[ms]	[-]	[Hz]	
421.25970	532.90	10	16.889	
933.10100	45.00	4	66.667	
1079.86290	21.40	2	46.729	
1193.33710	666.90	13	17.994	
1289.78820	556.70	9	14.370	
1394.08890	710.00	10	12.676	
1429.44110	502.60	6	9.948	
1488.10430	552.90	8	12.661	
1521.73410	424.50	11	23.557	
1590.34180	667.50	8	10.487	
1608.04680	424.50	13	28.269	
1668.42830	311.40	7	19.268	
1680.53390	358.30	15	39.073	
1703.09510	346.10	12	31.783	
1714.05670	254.60	8	27.494	
1731.45870	350.50	14	37.090	
1769.83190	75.20	4	39.894	
1791.29980	383.00	17	41.775	
1807.69470	351.80	14	36.953	
1858.68570	55.40	8	126.354	
1869.54160	382.40	19	47.071	
1908.11030	324.20	13	37.014	
1918.84270	357.20	19	50.392	
1936.29670	277.90	11	35.984	
1971.79950	311.30	20	61.034	
1991.37720	315.20	17	50.761	
2001.65270	332.00	7	18.072	
2030.55320	400.90	23	54.877	
2046.05730	359.30	13	33.398	
2088.38940	379.40	15	36.900	
2104.63350	114.10	5	35.057	
2118.40060	100.40	5	39.841	
2124.38900	214.70	6	23.288	
2134.18560	269.50	7	22.263	
2141.52620	81.90	4	36.630	
2154.72650	331.40	5	12.070	
2193.28920	335.40	11	29.815	
2241.35150	359.90	17	44.457	
2281.37840	359.10	16	41.771	
2303.98860	285.50	15	49.037	
2328.46030	403.20	14	32.242	
2359.76290	22.00	3	90.909	
2380.07730	379.40	14	34.265	
2424.99870	401.60	17	39.841	
2476.01840	363.50	23	60.523	
2503.60270	330.50	11	30.257	
2519.27790	370.10	9	21.616	
2586.58950	395.60	15	35.389	
2742.49370	222.90	5	17.945	
2786.50580	1284.70	39	29.579	
2809.37740	312.40	10	28.809	

t	22	22	22	
	Duration	Count	Frequency	
[s]	[ms]	[-]	[Hz]	
32.92880	29.20	4	102.740	
398.92500	46.80	7	128.205	
421.23940	621.80	5	6.433	
516.34230	31.40	4	95.541	
544.68170	13.30	4	225.564	
651.16490	480.50	14	27.055	
685.16230	45.70	3	43.764	
965.07260	2003.60	11	4.991	
994.47320	305.40	11	32.744	
1115.08190	293.70	7	20.429	
1193.32880	787.90	5	5.077	
1289.78430	582.00	5	6.873	
1314.38900	10.30	3	194.175	
1394.07970	1286.30	8	5.442	
1429.42030	584.30	6	8.557	
1488.10330	581.40	6	8.600	
1521.67360	485.60	7	12.356	
1527.58760	499.90	2	2.000	
1590.34320	1560.40	14	8.331	
1608.03790	405.20	6	12.340	
1668.38500	399.70	3	5.004	
1680.53360	363.30	4	8.258	
1703.08840	409.80	5	9.761	
1714.05310	333.10	4	9.006	
1731.45520	399.90	9	20.005	
1747.25410	33.00	4	90.909	
1791.29670	468.50	10	19.210	
1807.69040	390.20	5	10.251	
1858.65920	266.10	11	37.580	
1869.53070	429.40	7	13.973	
1908.09990	421.40	5	9.492	
1918.83690	364.70	5	10.968	
1932.05160	14.90	2	67.114	
1936.29340	341.70	5	11.706	
1971.77990	415.90	8	16.831	
1991.37560	402.30	9	19.886	
2001.63630	323.70	11	30.893	
2030.55500	415.20	10	21.676	
2046.04390	373.80	13	32.103	
2088.38550	424.00	8	16.509	
2104.61830	338.30	10	26.604	
2118.40210	283.70	9	28.199	
2124.34250	317.30	8	22.061	
2134.16310	353.40	12	31.126	
2141.52520	299.60	11	33.378	
2154.72610	323.60	12	33.993	
2193.28240	412.60	10	21.813	
2241.34540	379.40	8	18.450	
2281.36260	420.20	10	21.418	
2303.99610	395.30	12	27.827	
2328.48780	362.60	8	19.305	
2359.73770	254.70	10	35.336	
2380.07440	402.60	9	19.871	
2391.03830	32.30	4	92.879	
2424.94360	504.60	16	29.727	
2476.01740	491.20	10	18.322	
2503.60410	383.60	8	18.248	
2519.27000	389.00	10	23.136	
2586.58300	448.90	9	17.821	
2624.12560	252.10	5	15.867	
2640.55310	337.80	11	29.603	
2656.26230	246.40	11	40.584	
2694.37990	22.50	3	88.889	
2742.42150	375.00	19	48.000	
2786.50350	1291.70	27	20.129	
2793.22740	37.30	2	26.810	
2809.37410	366.10	15	38.241	

t	23	23	23	
	Duration	Count	Frequency	
[s]	[ms]	[-]	[Hz]	
169.15660	61.80	5	64.725	
348.37170	118.90	5	33.642	
421.26320	418.00	15	33.493	
1115.10480	45.40	3	44.053	
1193.33830	554.10	12	19.852	
1289.79540	446.30	14	29.128	
1394.08920	326.00	10	27.607	
1429.42740	369.80	15	37.858	
1488.11350	351.90	14	36.942	
1521.74270	323.80	10	27.795	
1590.35320	329.70	13	36.397	
1608.05660	281.50	12	39.076	
1668.39480	320.20	13	37.477	
1680.54480	266.40	10	33.784	
1703.10370	286.90	9	27.884	
1714.06280	275.50	7	21.779	
1731.47040	239.70	8	29.203	
1791.30920	329.60	11	30.340	
1807.70300	278.70	11	35.881	
1869.54700	307.00	14	42.345	
1908.11420	303.70	10	29.635	
1918.85120	248.00	10	36.290	
1936.30200	170.90	2	5.851	
1971.78650	351.10	9	22.786	
1991.38390	263.00	8	26.616	
2001.64540	63.50	3	31.496	
2030.56470	242.40	9	33.003	
2046.04670	241.10	7	24.886	
2088.39710	294.50	14	44.143	
2104.62420	232.40	2	4.303	
2118.40760	53.10	2	18.832	
2134.17450	224.40	4	13.369	
2141.53330	45.40	3	44.053	
2154.71900	56.50	2	17.699	
2193.29590	226.30	3	8.838	
2241.35660	305.30	6	16.377	
2281.37210	237.00	6	21.097	
2303.99630	264.30	9	30.269	
2328.46480	295.50	5	13.536	
2380.08900	272.20	6	18.369	
2425.01260	257.90	3	7.755	
2476.02890	292.00	3	6.849	
2503.61990	74.40	4	40.323	
2519.28890	47.80	3	41.841	
2586.59810	304.80	7	19.685	
2786.51500	96.20	4	31.185	
2809.38340	189.50	5	21.108	

t	24	24	24	
	Duration	Count	Frequency	
[s]	[ms]	[-]	[Hz]	
244.60020	342.60	17	46.702	
376.68510	588.50	25	40.782	
407.41470	66.20	3	30.211	
421.22420	1354.30	34	24.367	
550.60740	551.00	13	21.779	
651.17910	527.10	20	36.046	
688.42860	72.20	7	83.102	
964.99220	427.90	7	14.022	
994.41540	439.40	4	6.827	
1012.22430	332.60	5	12.026	
1115.01350	472.80	3	4.230	
1193.32290	1630.50	27	15.946	
1267.64240	362.20	15	38.653	
1289.77870	1391.20	16	10.782	
1391.07220	273.70	6	18.268	
1394.07410	1684.50	36	20.778	
1429.41080	1426.20	13	8.414	
1447.60890	363.70	16	41.243	
1457.62000	403.50	6	12.392	
1467.99760	340.30	16	44.079	
1488.09720	1159.90	20	16.381	
1521.72920	479.70	3	4.169	
1590.33080	1543.40	25	15.550	
1608.03340	499.90	4	6.001	
1624.84740	215.60	5	18.553	
1630.44210	249.60	6	20.032	
1668.38050	719.00	6	6.954	
1680.52830	454.10	4	6.606	
1703.08460	490.80	5	8.150	
1714.04150	463.30	3	4.317	
1731.45130	483.40	8	14.481	
1791.29380	525.10	4	5.713	
1807.69020	935.50	7	6.414	
1842.57970	365.20	8	19.168	
1858.61050	417.00	6	11.990	
1869.53000	520.40	6	9.608	
1908.10080	507.60	5	7.880	
1918.83110	465.30	5	8.597	
1931.96850	291.80	12	37.697	
1936.28490	470.80	5	8.496	
1971.77520	816.30	3	2.450	
1991.36910	496.60	4	6.041	
2001.63020	445.50	8	15.713	
2030.55240	1071.20	4	2.801	
2046.03280	469.50	6	10.650	
2088.38060	512.70	5	7.802	
2104.61690	449.60	5	8.897	
2117.12330	1679.60	15	8.335	
2124.33380	414.00	5	9.662	
2134.15900	450.50	4	6.659	
2141.52230	437.80	9	18.273	
2154.70700	445.70	5	8.975	
2193.27910	484.90	5	8.249	
2241.33970	511.80	3	3.908	
2281.35520	540.00	6	9.259	
2303.98660	521.40	7	11.507	
2310.72100	513.10	5	7.796	
2328.44870	492.20	6	10.158	
2359.66590	426.30	13	28.149	
2380.07430	510.80	7	11.746	
2390.96980	279.40	6	17.895	
2424.98540	540.70	4	5.548	
2441.88440	75.10	8	93.209	
2476.01490	1039.50	8	6.734	
2503.59920	530.30	9	15.086	
2519.26680	490.40	5	8.157	
2586.58110	542.10	6	9.223	
2624.05460	467.60	10	19.247	
2656.19810	461.10	10	19.519	
2685.45260	342.30	22	61.350	
2694.30030	413.50	18	41.112	
2716.62260	29.90	4	100.334	
2742.36470	480.30	6	10.410	
2786.49870	1356.80	15	10.318	
2809.37170	479.30	7	12.518	

t	25	25	25	
	Duration	Count	Frequency	
[s]	[ms]	[-]	[Hz]	

t	26	26	26	
	Duration	Count	Frequency	
[s]	[ms]	[-]	[Hz]	
421.25960	616.60	7	9.731	
994.42000	309.20	5	12.937	
1115.02330	374.60	17	42.712	
1193.33800	756.90	10	11.891	
1289.79270	634.00	11	15.773	
1394.08570	758.80	8	9.225	
1429.42650	570.70	8	12.266	
1447.61320	31.90	2	31.348	
1468.00330	36.00	4	83.333	
1488.11020	552.30	4	5.432	
1521.73950	402.10	7	14.922	
1590.35330	726.00	9	11.019	
1608.05590	350.80	11	28.506	
1630.45460	31.70	2	31.546	
1668.39540	364.90	11	27.405	
1680.54440	336.70	8	20.790	
1703.10590	385.80	8	18.144	
1714.06050	317.80	9	25.173	
1731.46780	361.30	12	30.446	
1791.30700	422.70	14	30.755	
1807.70020	347.70	7	17.256	
1858.62410	253.40	2	3.946	
1869.54890	377.80	5	10.588	
1908.11250	380.20	9	21.042	
1918.84850	328.90	9	24.324	
1931.98150	19.40	2	51.546	
1936.30340	333.30	13	36.004	
1971.78740	364.40	4	8.233	
1991.38190	390.90	12	28.140	
2001.64540	316.90	8	22.089	
2030.56200	386.50	7	15.524	
2046.05010	360.90	8	19.396	
2088.39640	410.40	6	12.183	
2104.62380	310.60	11	32.196	
2117.13070	1532.70	13	7.829	
2124.36820	271.00	12	40.590	
2134.17690	330.00	15	42.424	
2141.54080	222.20	13	54.005	
2154.72090	353.40	18	48.104	
2193.29150	375.50	10	23.968	
2241.35600	400.10	9	19.995	
2281.36980	422.70	10	21.292	
2303.99750	375.80	9	21.288	
2328.46440	362.30	10	24.841	
2359.67860	46.80	3	42.735	
2380.09280	390.30	15	35.870	
2390.97480	34.30	4	87.464	
2425.01140	388.80	10	23.148	
2476.03030	425.40	7	14.104	
2503.61730	372.20	11	26.867	
2519.28350	366.30	13	32.760	
2586.59530	421.00	9	19.002	
2624.06960	293.30	7	20.457	
2656.20540	226.40	4	13.251	
2694.31060	37.50	3	53.333	
2742.36800	296.90	16	50.522	
2786.51500	1232.10	36	28.407	
2809.38300	295.80	11	33.807	

t	27	27	27	
	Duration	Count	Frequency	
[s]	[ms]	[-]	[Hz]	
421.26970	426.40	19	42.214	
1193.34620	585.70	22	35.855	
1289.80270	394.30	20	48.187	
1394.09770	636.90	11	15.701	
1427.79520	1978.50	7	3.033	
1488.11810	411.70	19	43.721	
1521.74650	243.10	5	16.454	
1551.32760	92.20	9	86.768	
1590.36130	570.70	11	17.522	
1608.06090	65.60	8	106.707	
1668.40400	54.40	2	18.382	
1680.55840	12.90	2	77.519	
1703.11500	51.50	3	38.835	
1731.47790	49.00	3	40.816	
1791.32590	216.20	4	13.876	
1807.70870	53.50	5	74.766	
1869.55390	213.70	4	14.038	
1908.11270	73.10	5	54.720	
1918.86260	52.80	3	37.879	
1936.31950	43.70	2	22.883	
1971.81050	46.20	4	64.935	
1991.37980	68.90	7	87.083	
2001.65580	36.60	7	163.934	
2046.06430	42.90	5	93.240	
2088.40960	55.40	5	72.202	
2104.64120	39.00	4	76.923	
2118.42180	34.30	2	29.155	
2134.18940	34.30	5	116.618	
2154.72930	53.40	7	112.360	
2193.30340	70.50	3	28.369	
2241.37230	66.40	6	75.301	
2281.38400	62.20	5	64.309	
2304.01270	57.80	4	51.903	
2328.47930	58.90	4	50.934	
2380.10710	46.70	4	64.240	
2425.02980	57.00	4	52.632	
2476.04600	68.30	3	29.283	
2503.63730	45.30	5	88.300	
2519.29700	47.00	6	106.383	
2586.61990	52.60	4	57.034	
2786.52950	401.50	7	14.944	
2809.40320	13.90	3	143.885	

t	28	28	28	
	Duration	Count	Frequency	
[s]	[ms]	[-]	[Hz]	
421.29530	46.40	4	64.655	
1193.36410	48.90	6	102.249	
1394.11340	46.90	3	42.644	
1429.45330	76.40	4	39.267	
1590.38050	73.80	2	13.550	
1908.13990	15.20	2	65.789	

t	31	31	31	
	Duration	Count	Frequency	
[s]	[ms]	[-]	[Hz]	

t	32	32	32	
	Duration	Count	Frequency	
[s]	[ms]	[-]	[Hz]	

t	33	33	33	
	Duration	Count	Frequency	
[s]	[ms]	[-]	[Hz]	

t	34	34	34	
	Duration	Count	Frequency	
[s]	[ms]	[-]	[Hz]	
5.86070	114.80	10	78.397	
26.56840	277.60	5	14.409	
33.13630	30.70	3	65.147	
94.48810	675.10	18	25.181	
103.18920	27.90	4	107.527	
108.37900	353.00	13	33.994	
132.69700	56.00	5	71.429	
206.51680	73.80	2	13.550	
211.58140	815.20	10	11.040	
276.78250	22.50	3	88.889	
297.27920	34.30	5	116.618	
375.00670	10.60	2	94.340	
402.76750	361.30	3	5.536	
421.10940	1356.10	33	23.597	
465.75260	21.10	2	47.393	
474.68400	22.20	2	45.045	
499.20480	56.60	4	53.004	
504.00590	62.80	3	31.847	
539.14250	443.70	7	13.523	
544.68990	12.60	4	238.095	
581.85800	48.70	4	61.602	
622.94470	12.30	3	162.602	
651.13580	611.00	13	19.640	
706.85970	37.40	5	106.952	
821.78420	12.70	2	78.740	
845.44720	314.80	4	9.530	
873.60240	321.20	2	3.113	
965.05140	321.30	22	65.359	
994.42500	744.90	20	25.507	
1001.56160	14.70	2	68.027	
1115.04530	392.40	7	15.291	
1155.85520	533.40	20	35.621	
1193.31400	1546.80	22	13.576	
1261.94910	16.10	3	124.224	
1289.76630	1035.30	9	7.727	
1388.72020	14.10	2	70.922	
1394.06390	1453.60	22	14.447	
1429.30170	1324.00	12	8.308	
1447.62920	227.40	6	21.988	
1468.00710	284.10	8	24.639	
1488.08810	1217.80	19	14.781	
1521.71100	866.40	6	5.771	
1590.32290	1216.00	9	6.579	
1608.02480	918.40	11	10.889	
1630.45600	31.90	5	125.392	
1668.37110	928.30	15	15.081	
1680.52010	462.50	5	8.649	
1703.07570	1065.50	8	6.570	
1714.02960	464.30	4	6.461	
1731.41700	898.20	6	5.567	
1791.28600	978.40	5	4.088	
1807.67580	995.30	23	22.104	
1858.62960	350.20	10	25.700	
1869.52530	693.40	6	7.211	
1877.50860	19.00	2	52.632	
1880.32260	70.50	2	14.184	
1908.09630	787.10	4	3.811	
1918.80690	478.60	8	14.626	
1936.27740	451.50	4	6.645	
1971.76690	831.20	14	15.640	
1991.35740	472.10	4	6.355	
2001.62660	431.40	5	9.272	
2030.54140	984.50	6	5.079	
2046.02900	755.10	7	7.946	
2088.36930	888.20	7	6.755	
2104.60690	418.50	3	4.779	
2118.38680	398.20	4	7.534	
2124.32420	749.90	10	12.002	
2134.15490	436.20	3	4.585	
2141.45740	495.70	10	18.156	
2154.69910	444.50	3	4.499	
2193.24550	763.10	7	7.863	
2241.33190	469.40	3	4.261	
2255.34590	23.70	2	42.194	
2281.34550	457.80	4	6.553	
2303.97950	467.70	4	6.414	
2328.44250	471.30	4	6.365	
2359.68770	370.30	21	54.010	
2380.05770	475.60	5	8.410	
2390.97750	60.30	7	99.502	
2424.94690	515.80	7	11.632	
2476.00910	949.40	10	9.480	
2503.59600	463.10	7	12.956	
2519.25920	123.00	2	8.130	
2586.57290	519.20	6	9.630	
2624.08040	346.80	20	54.787	
2656.21180	356.90	26	70.048	
2694.33420	51.80	3	38.610	
2742.38500	421.60	11	23.719	
2786.49140	1285.50	38	28.783	
2809.36020	460.40	3	4.344	

t	35	35	35	
	Duration	Count	Frequency	
[s]	[ms]	[-]	[Hz]	
421.22980	608.40	10	14.793	
994.45780	16.10	2	62.112	
1115.12990	178.30	4	16.826	
1193.32540	652.30	13	18.396	
1289.77930	552.60	5	7.239	
1394.07590	692.30	14	18.778	
1429.41350	494.20	6	10.117	
1488.10030	533.00	7	11.257	
1521.72960	418.70	4	7.165	
1590.34030	616.60	13	19.462	
1608.03800	401.00	6	12.469	
1668.38330	403.50	4	7.435	
1680.52940	408.60	7	14.684	
1703.08800	381.60	5	10.482	
1714.04540	395.90	9	20.207	
1731.45300	366.90	6	13.628	
1791.29540	419.10	5	9.544	
1807.69040	399.30	8	17.531	
1869.53590	401.10	8	17.452	
1908.10270	415.80	7	14.430	
1918.83920	388.40	6	12.873	
1936.29090	359.50	8	19.471	
1971.77500	390.80	7	15.353	
1991.37340	362.30	4	8.280	
2001.63340	338.90	7	17.704	
2030.55010	451.00	8	15.521	
2046.03600	385.60	7	15.560	
2088.38560	387.90	7	15.468	
2104.61530	322.20	8	21.726	
2118.39970	298.90	4	10.037	
2124.34720	299.60	6	16.689	
2134.16110	332.50	10	27.068	
2141.52600	320.10	12	34.364	
2154.70670	340.80	13	35.211	
2193.28120	352.90	4	8.501	
2241.34290	372.90	6	13.408	
2281.35930	405.70	9	19.719	
2303.98690	366.80	6	13.631	
2328.45320	367.00	8	19.074	
2380.07730	375.90	10	23.943	
2424.99810	388.60	9	20.587	
2476.01720	396.00	6	12.626	
2503.60730	353.40	9	22.637	
2519.26790	336.60	13	35.651	
2586.58210	385.40	5	10.379	
2703.22310	44.70	2	22.371	
2786.50160	1149.70	17	13.917	
2809.36930	362.60	9	22.063	

t	36	36	36	
	Duration	Count	Frequency	
[s]	[ms]	[-]	[Hz]	
421.25270	508.40	11	19.670	
1193.32910	633.90	16	23.663	
1289.78310	504.20	11	19.833	
1394.08130	689.90	28	39.136	
1429.42030	484.00	9	16.529	
1488.10110	508.60	14	25.560	
1521.73090	347.20	10	25.922	
1590.34440	588.30	22	35.696	
1608.04620	327.00	9	24.465	
1668.38940	349.80	9	22.870	
1680.53840	288.00	13	41.667	
1703.09350	331.10	13	36.243	
1714.05110	301.50	21	66.335	
1731.46250	322.40	15	43.424	
1791.30110	353.00	10	25.496	
1807.69480	364.30	18	46.665	
1869.54130	364.10	10	24.718	
1908.10730	327.90	15	42.696	
1918.84360	300.10	16	49.983	
1936.29680	267.00	13	44.944	
1971.78310	327.90	15	42.696	
1991.38010	305.00	15	45.902	
2001.63810	277.30	12	39.668	
2030.55720	349.60	19	51.487	
2046.03900	312.40	13	38.412	
2088.39290	345.20	13	34.762	
2104.61790	272.90	5	14.657	
2118.40050	230.30	13	52.106	
2124.35470	236.70	5	16.899	
2134.16900	266.10	10	33.822	
2141.53240	177.20	5	22.573	
2154.71570	299.30	8	23.388	
2193.28190	297.20	12	37.012	
2241.34690	340.00	17	47.059	
2281.36380	336.00	15	41.667	
2303.99510	291.10	11	34.352	
2328.45690	325.50	15	43.011	
2380.08510	282.20	10	31.892	
2425.00260	307.40	15	45.543	
2476.02250	340.80	16	44.014	
2503.61070	261.20	10	34.456	
2519.27600	279.00	9	28.674	
2586.59110	365.50	10	24.624	
2786.50850	1019.50	16	14.713	
2809.37820	284.30	8	24.622	

t	37	37	37	
	Duration	Count	Frequency	
[s]	[ms]	[-]	[Hz]	
421.25900	343.60	9	23.283	
1193.34160	310.00	2	3.226	
1289.79420	371.30	11	26.932	
1427.78670	1963.60	9	4.074	
1488.10770	312.70	13	38.375	
1590.35720	50.50	2	19.802	
1608.06010	55.40	3	36.101	
1668.40130	214.30	2	4.666	
1703.10960	54.70	2	18.282	
1714.06470	53.40	2	18.727	
1731.47050	34.70	3	57.637	
1807.70890	13.60	3	147.059	
1908.11840	42.80	2	23.364	
1918.84870	45.20	3	44.248	
1936.30320	41.50	7	144.578	
1971.79630	32.20	5	124.224	
1991.37790	10.70	2	93.458	
2001.64950	21.20	2	47.170	
2030.56750	39.70	5	100.756	
2046.05420	48.90	5	81.800	
2088.40200	54.80	6	91.241	
2104.63610	47.80	3	41.841	
2154.72290	26.10	3	76.628	
2193.29990	53.80	4	55.762	
2241.36160	24.40	4	122.951	
2281.37530	49.70	6	100.604	
2304.00830	30.70	4	97.720	
2328.47720	35.60	5	112.360	
2380.10250	21.60	4	138.889	
2425.03030	27.90	4	107.527	
2476.03580	37.10	5	107.817	
2503.62030	34.20	4	87.719	
2519.29140	23.40	2	42.735	
2786.52440	56.90	3	35.149	
2809.40190	33.90	4	88.496	

t	38	38	38	
	Duration	Count	Frequency	
[s]	[ms]	[-]	[Hz]	
421.28370	30.60	3	65.359	
794.28560	111.50	11	89.686	
1193.36090	22.00	4	136.364	
1289.81530	22.10	3	90.498	
1356.35790	796.40	3	2.511	
1394.10970	56.50	6	88.496	
1429.43700	78.70	6	63.532	
1488.14320	11.90	3	168.067	
1521.74960	25.40	4	118.110	
1590.36560	35.10	3	56.980	
1874.86640	15.90	2	62.893	
1893.10590	346.10	3	5.779	
2193.33300	14.20	3	140.845	
2598.36170	800.00	3	2.500	
2649.74870	268.90	2	3.719	
2673.22310	525.20	2	1.904	
2786.48310	91.80	3	21.786	

t	41	41	41	
	Duration	Count	Frequency	
[s]	[ms]	[-]	[Hz]	

t	42	42	42	
	Duration	Count	Frequency	
[s]	[ms]	[-]	[Hz]	

t	43	43	43	
	Duration	Count	Frequency	
[s]	[ms]	[-]	[Hz]	

t	44	44	44	
	Duration	Count	Frequency	
[s]	[ms]	[-]	[Hz]	
26.56630	75.40	2	13.263	
94.48910	483.90	15	28.932	
103.17960	17.90	2	55.866	
108.38190	332.40	9	24.067	
206.51560	202.30	5	19.773	
210.85930	1500.40	6	3.332	
276.76440	63.30	9	126.382	
297.25760	238.10	5	16.800	
375.01680	11.10	2	90.090	
421.10230	1389.50	22	15.113	
499.24900	15.10	2	66.225	
504.00720	50.90	4	58.939	
544.68800	17.00	2	58.824	
581.87140	39.10	5	102.302	
651.13230	581.00	7	10.327	
1115.10790	231.50	11	43.197	
1193.31260	1119.80	9	7.144	
1261.95810	20.80	3	96.154	
1282.67890	25.10	3	79.681	
1289.76350	897.80	9	8.911	
1394.06250	1097.30	9	7.291	
1429.39030	1013.20	6	4.935	
1488.09030	1069.90	5	3.739	
1500.01540	78.70	5	50.826	
1521.71060	497.50	3	4.020	
1545.08770	35.50	4	84.507	
1590.31620	590.10	4	5.084	
1608.02570	477.40	3	4.189	
1668.36400	787.50	6	6.349	
1680.51830	111.00	2	9.009	
1703.07470	470.90	3	4.247	
1714.01680	452.70	5	8.836	
1731.42050	482.10	5	8.297	
1791.28490	115.50	2	8.658	
1807.67110	855.80	4	3.505	
1869.52400	115.20	2	8.681	
1908.08990	468.70	4	6.401	
1918.82510	444.80	5	8.993	
1936.27710	457.20	4	6.562	
1971.76660	468.10	4	6.409	
1991.35840	435.10	4	6.895	
2001.62270	430.90	5	9.283	
2030.53930	111.30	2	8.985	
2046.02250	452.90	3	4.416	
2088.37540	444.50	3	4.499	
2104.60650	408.60	6	12.237	
2118.38430	426.70	3	4.687	
2124.31140	418.50	5	9.558	
2134.15090	410.40	3	4.873	
2141.45880	463.80	5	8.624	
2154.69250	424.80	3	4.708	
2193.27010	417.40	3	4.792	
2241.33270	448.60	5	8.917	
2281.34820	452.80	5	8.834	
2303.97620	444.40	7	13.501	
2328.44160	437.70	3	4.569	
2380.05340	443.70	3	4.508	
2424.94480	480.30	7	12.492	
2476.00830	452.60	5	8.838	
2503.59390	434.70	4	6.901	
2519.25660	437.40	4	6.859	
2586.57320	438.60	6	11.400	
2786.49080	135.10	2	7.402	
2809.36090	435.90	3	4.588	

t	45	45	45	
	Duration	Count	Frequency	
[s]	[ms]	[-]	[Hz]	
421.25160	394.30	5	10.145	
1193.33370	339.80	5	11.772	
1289.78250	339.30	6	14.736	
1394.08320	357.20	7	16.797	
1429.41790	350.80	6	14.253	
1488.10620	323.50	8	21.638	
1521.73290	280.80	10	32.051	
1590.34730	251.00	9	31.873	
1608.04860	198.60	4	15.106	
1668.38990	219.90	8	31.833	
1680.53800	189.90	3	10.532	
1703.09740	262.00	8	26.718	
1714.05150	183.00	2	5.464	
1731.46250	195.20	2	5.123	
1791.30240	214.70	3	9.315	
1807.69770	164.10	2	6.094	
1869.54810	57.00	2	17.544	
1936.29280	189.30	3	10.565	
2154.71390	45.70	2	21.882	
2380.08320	185.80	3	10.764	

t	46	46	46	
	Duration	Count	Frequency	
[s]	[ms]	[-]	[Hz]	
373.21910	243.60	10	36.946	
421.23050	943.00	13	12.725	
651.21820	405.70	2	2.465	
1193.32370	612.30	21	32.664	
1289.76670	511.20	9	15.649	
1394.07270	696.00	24	33.046	
1429.41240	476.60	15	29.375	
1488.09710	975.30	12	11.279	
1521.70460	438.70	16	34.192	
1590.33630	508.50	12	21.632	
1608.03280	376.60	12	29.209	
1668.37840	390.50	9	20.487	
1680.52040	353.50	13	33.946	
1703.08600	366.40	16	40.939	
1714.03780	427.20	20	44.476	
1731.44640	357.50	19	50.350	
1791.28850	398.10	18	42.703	
1807.68370	337.60	14	38.507	
1869.52800	389.80	11	25.654	
1908.09730	395.10	17	40.496	
1918.81110	403.00	15	34.739	
1936.28720	329.90	17	48.500	
1971.76930	340.10	19	52.926	
1991.36860	324.80	15	43.103	
2001.62320	331.40	21	60.350	
2030.54560	425.40	22	49.365	
2046.03240	349.20	21	57.274	
2088.37910	332.30	21	60.187	
2104.60980	280.30	12	39.244	
2118.38780	277.20	12	39.683	
2124.34780	298.70	18	56.913	
2134.15610	345.30	24	66.609	
2141.52100	270.90	18	62.754	
2154.70100	189.70	4	15.814	
2193.26870	341.00	12	32.258	
2241.33580	338.50	19	53.176	
2281.35040	366.70	17	43.632	
2303.98000	343.60	17	46.566	
2328.44400	433.10	19	41.561	
2380.07350	374.40	14	34.722	
2424.99250	369.50	19	48.714	
2476.01450	356.00	17	44.944	
2503.59530	301.30	15	46.465	
2519.26700	307.70	15	45.499	
2586.58000	346.60	13	34.622	
2607.12300	548.90	22	38.258	
2786.49820	464.70	19	38.735	
2809.36330	353.40	18	48.104	

t	47	47	47	
	Duration	Count	Frequency	
[s]	[ms]	[-]	[Hz]	
421.25100	398.00	14	32.663	
1193.33270	346.80	7	17.301	
1289.78990	383.40	21	52.165	
1394.07360	105.00	5	38.095	
1429.41490	380.40	7	15.773	
1488.09960	396.40	13	30.272	
1590.33840	10.80	3	185.185	
1668.38950	51.60	3	38.760	
1680.53800	66.20	3	30.211	
1703.09370	267.70	3	7.471	
1714.04690	53.20	3	37.594	
1731.45720	48.80	2	20.492	
1791.29800	349.50	3	5.722	
1807.70100	25.90	4	115.830	
1869.53490	58.20	4	51.546	
1908.10280	53.00	4	56.604	
1918.83720	53.90	3	37.106	
1936.29200	10.00	2	100.000	
1971.78720	30.70	4	97.720	
1991.37160	59.10	4	50.761	
2030.55630	51.40	6	97.276	
2046.04080	36.10	6	138.504	
2088.38440	58.20	4	51.546	
2104.62690	24.50	4	122.449	
2118.39800	41.40	4	72.464	
2134.16650	31.90	3	62.696	
2154.71020	24.80	2	40.323	
2193.27830	61.40	2	16.287	
2241.35490	23.40	3	85.470	
2281.35480	51.90	6	96.339	
2303.98790	40.60	5	98.522	
2328.46880	26.40	4	113.636	
2380.10140	14.50	3	137.931	
2425.01370	20.00	3	100.000	
2476.01570	51.00	8	137.255	
2503.60820	20.10	4	149.254	
2586.58940	24.60	4	121.951	
2786.49530	51.90	11	192.678	
2809.37350	31.90	4	94.044	

t	48	48	48	
	Duration	Count	Frequency	
[s]	[ms]	[-]	[Hz]	
421.28600	11.40	3	175.439	
1193.35510	20.50	4	146.341	
1428.68440	770.40	4	3.894	
1440.57520	65.40	2	15.291	

t	51	51	51	
	Duration	Count	Frequency	
[s]	[ms]	[-]	[Hz]	
421.23520	466.00	7	12.876	
1193.32880	425.00	13	28.235	
1289.77720	368.30	5	10.861	
1394.08020	371.00	9	21.563	
1429.42020	306.70	8	22.824	
1488.10600	323.50	11	30.912	
1521.73270	306.00	8	22.876	
1590.34440	340.50	9	23.495	
1608.04360	277.50	12	39.640	
1668.38130	265.40	18	64.054	
1680.53770	237.00	11	42.194	
1703.09450	205.20	9	38.986	
1714.05710	194.00	6	25.773	
1731.46110	209.00	8	33.493	
1791.30450	223.10	5	17.929	
1869.54490	192.30	5	20.801	
1908.10680	186.00	5	21.505	
1971.78140	37.10	2	26.954	
2088.40180	25.80	2	38.760	
2104.61920	215.30	9	37.157	
2134.17010	181.40	3	11.025	
2193.30270	141.90	4	21.142	
2281.37050	26.70	2	37.453	
2304.00340	22.60	3	88.496	
2425.00690	26.90	3	74.349	
2786.51910	22.30	3	89.686	
2809.38840	17.70	3	112.994	

t	52	52	52	
	Duration	Count	Frequency	
[s]	[ms]	[-]	[Hz]	

t	53	53	53	
	Duration	Count	Frequency	
[s]	[ms]	[-]	[Hz]	
1005.14780	11.60	2	86.207	
1040.45060	20.50	2	48.780	

t	54	54	54	
	Duration	Count	Frequency	
[s]	[ms]	[-]	[Hz]	

t	55	55	55	
	Duration	Count	Frequency	
[s]	[ms]	[-]	[Hz]	
26.56910	71.20	5	56.180	
33.13400	11.90	2	84.034	
94.54540	430.40	11	23.234	
103.20320	24.60	4	121.951	
108.40040	40.50	4	74.074	
132.71120	12.90	2	77.519	
206.51800	63.00	2	15.873	
211.58350	74.70	8	93.708	
402.72170	65.60	3	30.488	
421.10170	1266.50	21	15.792	
474.67880	49.30	4	60.852	
504.00260	55.30	7	108.499	
651.13820	556.90	10	16.161	
1193.30720	627.60	4	4.780	
1289.76430	566.70	4	5.294	
1394.06020	142.90	4	20.994	
1429.38030	553.10	10	16.272	
1488.08140	573.60	7	10.460	
1521.70730	485.90	4	6.174	
1590.31140	584.00	12	18.836	
1608.01930	467.50	7	12.834	
1668.35900	786.10	7	7.633	
1680.51090	453.00	5	8.830	
1703.07170	453.80	7	13.222	
1714.01470	449.00	8	15.590	
1731.41280	472.30	9	16.938	
1791.28060	465.20	7	12.898	
1807.66230	944.80	9	8.467	
1869.51720	460.60	4	6.513	
1908.08710	450.00	3	4.444	
1918.76770	486.90	12	22.592	
1936.27090	463.40	8	15.106	
1971.76060	462.80	4	6.482	
1991.35250	424.20	5	9.430	
2001.61720	419.50	9	19.070	
2030.53440	472.10	7	12.709	
2046.01920	429.10	7	13.983	
2088.36280	460.10	7	13.041	
2104.60210	384.20	5	10.411	
2118.37380	432.20	10	20.824	
2124.26180	483.80	6	10.335	
2134.13860	404.50	7	14.833	
2141.42500	496.90	15	28.175	
2154.67850	451.90	9	17.703	
2193.22850	450.10	14	28.882	
2236.96240	11.60	2	86.207	
2241.32630	430.80	11	23.213	
2255.21690	123.20	2	8.117	
2281.34400	455.90	8	15.354	
2303.96860	452.60	9	17.676	
2328.43470	408.50	4	7.344	
2380.04270	422.00	7	14.218	
2424.94150	462.40	11	21.626	
2475.99930	407.40	7	14.728	
2503.58140	430.40	8	16.264	
2519.25050	428.10	8	16.351	
2586.56500	457.00	8	15.317	
2786.47460	490.80	5	8.150	
2809.35130	453.20	10	19.859	

t	56	56	56	
	Duration	Count	Frequency	
[s]	[ms]	[-]	[Hz]	
421.20260	973.00	10	9.250	
873.57890	76.90	2	13.004	
1193.31040	618.10	22	33.975	
1289.77080	480.10	12	22.912	
1394.06550	514.70	21	38.858	
1403.63360	75.90	8	92.227	
1429.40380	461.20	11	21.683	
1488.08960	591.70	18	28.731	
1521.70430	424.40	17	37.700	
1590.31960	548.60	26	45.571	
1608.01910	423.10	26	59.088	
1668.37230	369.70	21	54.098	
1680.51840	459.50	22	45.702	
1703.07640	400.20	18	42.479	
1714.03250	376.80	26	66.348	
1731.42100	474.70	19	37.919	
1791.28280	309.20	13	38.810	
1807.67180	358.70	23	61.333	
1869.52610	420.10	23	52.368	
1908.09230	404.40	11	24.728	
1918.82380	319.50	19	56.338	
1936.27040	256.30	6	19.508	
1971.76340	358.40	8	19.531	
1991.35820	314.50	3	6.359	
2001.62280	310.40	10	28.995	
2030.54090	334.00	8	20.958	
2046.02360	368.70	9	21.698	
2088.37380	316.50	4	9.479	
2118.38210	62.50	3	32.000	
2124.32220	291.90	19	61.665	
2134.14970	275.70	5	14.509	
2141.45820	302.00	8	23.179	
2154.69450	54.00	2	18.519	
2241.32900	323.00	2	3.096	
2281.34770	288.30	8	24.280	
2303.97480	278.50	2	3.591	
2328.44070	310.00	2	3.226	
2380.04980	18.60	5	215.054	
2503.58670	287.80	2	3.475	
2519.25750	291.00	2	3.436	
2569.41880	15.00	2	66.667	
2586.57060	416.70	3	4.800	
2786.49250	469.50	3	4.260	
2809.36060	59.30	2	16.863	

t	57	57	57	
	Duration	Count	Frequency	
[s]	[ms]	[-]	[Hz]	
421.24840	379.60	17	42.150	
1394.07860	51.50	4	58.252	
1429.41410	47.80	5	83.682	
1488.09750	41.60	3	48.077	
1521.72950	40.20	3	49.751	
1590.33880	44.20	6	113.122	
1608.04290	37.50	7	160.000	
1668.37850	35.60	5	112.360	
1703.09320	28.70	4	104.530	
1714.04570	25.50	2	39.216	
1791.29300	18.60	2	53.763	
1908.09520	22.30	3	89.686	
1918.83130	31.80	2	31.447	

t	58	58	58	
	Duration	Count	Frequency	
[s]	[ms]	[-]	[Hz]	

t	61	61	61	
	Duration	Count	Frequency	
[s]	[ms]	[-]	[Hz]	

t	62	62	62	
	Duration	Count	Frequency	
[s]	[ms]	[-]	[Hz]	
421.26140	96.60	4	31.056	
1193.34550	325.70	3	6.141	
1289.79680	31.60	2	31.646	
1394.09100	32.70	2	30.581	
1429.42980	28.00	4	107.143	
1488.11530	278.30	5	14.373	
1521.74970	72.10	4	41.609	
1590.35560	32.20	3	62.112	
1608.06520	71.50	3	27.972	
1668.39750	77.50	3	25.806	
1680.54720	32.10	3	62.305	
1703.10810	69.00	3	28.986	
1714.06070	32.30	3	61.920	
1791.31430	44.10	3	45.351	
1807.70280	32.10	3	62.305	
1869.58060	44.80	2	22.321	
1908.14370	54.90	4	54.645	
1918.88320	28.50	2	35.088	
1936.31130	69.30	3	28.860	
1971.78950	53.80	4	55.762	
1991.42040	39.40	2	25.381	
2001.64740	49.10	3	40.733	
2030.56770	67.50	6	74.074	
2046.09260	15.50	4	193.548	
2088.43710	46.50	3	43.011	
2104.63260	34.30	3	58.309	
2118.41270	65.50	6	76.336	
2124.36470	43.10	5	92.807	
2154.72250	54.60	9	146.520	
2193.32720	56.60	6	88.339	
2241.35690	51.80	4	57.915	
2281.36520	77.20	8	90.674	
2303.99980	43.80	2	22.831	
2328.46630	49.10	2	20.367	
2380.08790	64.90	3	30.817	
2425.01140	70.20	6	71.225	
2476.06980	26.00	3	76.923	
2503.62220	41.80	2	23.923	
2786.51790	53.80	2	18.587	
2809.38050	63.90	3	31.299	

t	63	63	63	
	Duration	Count	Frequency	
[s]	[ms]	[-]	[Hz]	
421.22490	565.80	9	14.139	
651.17120	552.00	6	9.058	
1193.33900	610.80	23	36.018	
1289.79090	526.10	9	15.206	
1394.08790	637.20	16	23.540	
1429.42400	477.20	21	41.911	
1488.11020	466.50	17	34.298	
1521.73890	433.30	10	20.771	
1590.34970	340.20	9	23.516	
1608.05730	44.80	2	22.321	
1668.39070	311.70	3	6.416	
1680.54360	140.90	5	28.389	
1703.10330	139.70	5	28.633	
1714.05710	45.80	2	21.834	
1731.46320	135.60	4	22.124	
1791.30500	154.90	4	19.367	
1807.69330	287.60	3	6.954	
1869.54510	145.50	4	20.619	
1908.10880	150.00	3	13.333	
1918.84650	49.50	2	20.202	
1936.29440	151.30	5	26.438	
1971.77760	64.00	2	15.625	
1991.38010	153.20	3	13.055	
2001.63360	121.70	6	41.085	
2030.55710	133.50	3	14.981	
2046.04020	141.70	3	14.114	
2088.39100	159.20	5	25.126	
2104.61500	176.10	6	28.393	
2118.40170	124.80	3	16.026	
2124.35540	99.20	8	70.565	
2134.16500	143.20	4	20.950	
2141.52740	117.80	5	33.956	
2154.70910	141.00	3	14.184	
2193.28590	173.20	5	23.095	
2241.34510	171.90	7	34.904	
2281.36060	184.40	6	27.115	
2303.99090	187.90	3	10.644	
2328.45120	174.60	5	22.910	
2380.07890	66.10	2	15.129	
2425.00340	165.40	4	18.138	
2476.02270	151.80	4	19.763	
2503.60970	62.40	2	16.026	
2519.27560	163.40	9	48.960	
2586.58780	137.90	3	14.503	
2786.50420	226.90	6	22.036	
2809.37380	226.70	7	26.467	

t	64	64	64	
	Duration	Count	Frequency	
[s]	[ms]	[-]	[Hz]	
94.54140	27.50	3	72.727	
108.44850	19.00	2	52.632	
421.12950	675.90	13	17.754	
651.15210	570.60	24	40.308	
1193.32120	683.70	23	32.178	
1289.76870	541.50	22	38.781	
1394.06820	696.60	23	31.582	
1428.04870	1843.90	18	9.220	
1488.08970	486.70	20	39.038	
1521.71980	373.30	10	24.109	
1590.32860	570.10	10	15.787	
1608.01990	198.80	10	45.272	
1668.36520	196.10	11	50.994	
1680.52630	171.30	7	35.026	
1703.07420	118.40	7	50.676	
1714.03740	171.90	7	34.904	
1731.41250	227.50	11	43.956	
1791.28740	198.90	10	45.249	
1807.67680	166.70	11	59.988	
1869.51660	127.10	6	39.339	
1908.09000	216.80	11	46.125	
1918.79150	218.80	12	50.274	
1936.28870	195.70	8	35.769	
1971.76840	177.50	7	33.803	
1991.35790	240.70	10	37.391	
2001.62300	170.60	9	46.893	
2030.53470	209.00	12	52.632	
2046.02350	214.80	10	41.899	
2088.37230	173.90	8	40.253	
2104.62580	208.70	8	33.541	
2118.38340	207.40	12	53.038	
2134.15530	202.60	10	44.423	
2141.52040	14.90	2	67.114	
2154.69520	212.60	13	56.444	
2193.27750	212.70	6	23.507	
2241.32650	245.70	8	28.490	
2281.34920	226.50	12	48.565	
2303.97900	235.00	4	12.766	
2328.44030	204.50	8	34.230	
2380.05580	271.20	6	18.437	
2424.98760	236.60	8	29.586	
2476.00650	227.80	6	21.949	
2503.59540	206.10	9	38.816	
2519.26420	200.40	6	24.950	
2586.57150	232.70	8	30.082	
2786.48370	294.40	10	30.571	
2809.36130	251.70	11	39.730	

t	65	65	65	
	Duration	Count	Frequency	
[s]	[ms]	[-]	[Hz]	
421.19880	261.30	9	30.616	
651.17180	435.30	16	34.459	
1193.31350	544.50	20	34.894	
1289.76900	478.90	10	18.793	
1394.06490	187.60	4	15.991	
1429.38000	433.00	8	16.166	
1488.08550	474.60	12	23.177	
1521.71980	88.70	4	33.822	
1590.31880	202.10	10	44.532	
1608.02440	108.60	3	18.416	
1668.36610	96.30	6	51.921	
1680.51650	92.40	6	54.113	
1703.07120	75.10	5	53.262	
1714.03080	80.00	7	75.000	
1731.41980	107.30	7	55.918	
1791.28360	83.20	5	48.077	
1807.67140	60.30	2	16.584	
1869.51920	108.20	4	27.726	
1908.08920	92.70	7	64.725	
1918.82430	96.60	4	31.056	
1936.27210	88.90	4	33.746	
1971.75950	103.10	5	38.797	
1991.35520	63.60	4	47.170	
2001.62160	45.60	2	21.930	
2030.53170	64.50	5	62.016	
2046.01260	63.10	4	47.544	
2088.36090	71.30	4	42.076	
2104.60530	50.90	5	78.585	
2118.38430	89.40	3	22.371	
2124.32860	55.70	3	35.907	
2134.14830	54.80	2	18.248	
2141.46080	140.90	5	28.389	
2154.69290	89.70	4	33.445	
2193.26710	88.80	6	56.306	
2241.32660	53.80	3	37.175	
2281.34810	53.90	2	18.553	
2303.97560	56.00	3	35.714	
2328.43960	90.50	5	44.199	
2380.04920	68.20	5	58.651	
2424.97380	65.20	3	30.675	
2476.00770	87.30	4	34.364	
2503.59190	86.60	4	34.642	
2519.25570	52.40	2	19.084	
2586.56940	54.00	3	37.037	
2786.48820	59.50	4	50.420	
2809.35980	99.10	5	40.363	

t	66	66	66	
	Duration	Count	Frequency	
[s]	[ms]	[-]	[Hz]	
421.22000	516.50	16	29.042	
1193.31520	572.50	17	27.948	
1289.77150	432.60	6	11.558	
1394.06670	606.20	10	14.847	
1429.40520	214.00	9	37.383	
1488.08940	479.70	10	18.762	
1521.72010	74.40	7	80.645	
1590.31880	221.00	17	72.398	
1608.02360	58.50	3	34.188	
1668.37540	86.30	5	46.350	
1680.52660	50.50	4	59.406	
1703.08080	167.20	6	29.904	
1714.03360	76.50	6	65.359	
1731.41990	88.30	4	33.975	
1791.28110	171.70	6	29.121	
1807.67650	37.40	4	80.214	
1869.51910	211.30	6	23.663	
1908.09180	97.60	5	40.984	
1918.82390	42.30	2	23.641	
1936.28060	192.20	4	15.609	
1971.76140	38.50	4	77.922	
1991.35580	46.60	2	21.459	
2001.62240	35.30	3	56.657	
2030.53460	192.70	6	25.947	
2046.02530	151.90	5	26.333	
2083.79060	350.70	10	25.663	
2088.37680	177.80	3	11.249	
2104.60510	186.90	4	16.051	
2118.38610	85.50	4	35.088	
2124.34840	23.40	2	42.735	
2134.15350	78.20	4	38.363	
2141.51930	71.50	4	41.958	
2154.69390	173.00	5	23.121	
2193.24340	225.50	14	57.650	
2241.32840	207.60	9	38.536	
2281.34850	86.00	4	34.884	
2303.97620	201.20	5	19.881	
2328.44040	185.20	4	16.199	
2380.06990	206.80	7	29.014	
2424.98620	207.60	7	28.902	
2476.00010	173.90	7	34.503	
2503.59560	175.50	5	22.792	
2519.25670	196.30	6	25.471	
2586.56970	206.20	10	43.647	
2763.21660	91.10	6	54.885	
2786.48610	216.60	8	32.318	
2809.36700	205.70	11	48.614	

t	67	67	67	
	Duration	Count	Frequency	
[s]	[ms]	[-]	[Hz]	
421.34080	319.00	10	28.213	
1193.32290	201.00	12	54.726	
1289.79430	153.70	7	39.037	
1394.08880	202.20	11	49.456	
1429.40880	184.90	12	59.492	
1488.09780	192.10	16	78.084	
1521.72530	154.00	7	38.961	
1590.33810	185.40	11	53.937	
1608.03820	43.20	3	46.296	
1668.39030	107.70	6	46.425	
1680.52800	33.30	5	120.120	
1703.08950	160.60	8	43.587	
1714.06030	124.30	4	24.135	
1731.45070	179.10	7	33.501	
1791.29110	176.90	10	50.876	
1807.69230	43.90	3	45.558	
1869.53670	195.50	8	35.806	
1908.10840	150.80	6	33.156	
1918.82930	25.50	4	117.647	
1936.29460	173.70	12	63.328	
1971.77620	61.00	3	32.787	
1991.36880	174.20	9	45.924	
2001.62490	46.90	3	42.644	
2030.55620	156.50	3	12.780	
2046.02960	164.30	6	30.432	
2088.38240	186.00	9	43.011	
2104.61800	207.00	10	43.478	
2118.38860	49.10	3	40.733	
2124.35570	34.60	2	28.902	
2134.16790	32.50	3	61.538	
2141.53040	36.40	3	54.945	
2154.71110	153.50	5	26.059	
2193.26720	227.10	18	74.857	
2241.34390	177.70	5	22.510	
2281.35390	189.40	7	31.679	
2328.45540	186.30	5	21.471	
2380.07970	173.20	4	17.321	
2424.98960	178.60	5	22.396	
2476.02540	184.80	9	43.290	
2503.60060	183.20	7	32.751	
2519.26530	174.90	7	34.305	
2586.58510	199.90	12	55.028	
2786.49470	227.60	12	48.330	
2809.37640	206.70	9	38.703	

t	68	68	68	
	Duration	Count	Frequency	
[s]	[ms]	[-]	[Hz]	
1193.34270	69.60	6	71.839	
1394.09190	52.20	2	19.157	
1488.11330	60.40	3	33.113	
1680.54530	62.10	5	64.412	
1714.06160	54.40	2	18.382	
1731.47090	45.10	3	44.346	
1807.70420	189.10	5	21.153	
1908.11510	53.00	3	37.736	
1936.30010	63.70	2	15.699	
1971.78860	45.80	2	21.834	
2030.56460	52.40	2	19.084	
2046.04570	10.00	3	200.000	
2088.39640	60.40	3	33.113	
2104.62670	54.40	3	36.765	
2124.36590	33.30	3	60.060	
2134.17530	45.50	3	43.956	
2154.71540	55.00	2	18.182	
2241.35190	56.80	3	35.211	
2304.00180	49.20	3	40.650	
2328.46400	57.90	4	51.813	
2380.09380	47.30	4	63.425	
2425.01230	51.30	2	19.493	
2476.02920	15.80	3	126.582	
2503.61960	54.50	4	55.046	
2786.51760	199.40	2	5.015	
2809.38320	64.70	2	15.456	

t	71	71	71	
	Duration	Count	Frequency	
[s]	[ms]	[-]	[Hz]	

t	72	72	72	
	Duration	Count	Frequency	
[s]	[ms]	[-]	[Hz]	
421.25270	54.00	3	37.037	
651.17510	71.40	9	112.045	
1193.33100	77.30	7	77.620	
1289.78520	71.90	7	83.449	
1394.08080	96.30	8	72.690	
1429.42300	77.90	5	51.348	
1488.15430	23.80	3	84.034	
1521.73660	59.90	6	83.472	
1590.34710	70.00	7	85.714	
1608.04130	66.00	5	60.606	
1668.39170	49.80	4	60.241	
1680.57930	21.50	2	46.512	
1703.10000	63.30	3	31.596	
1714.05600	52.70	4	56.926	
1731.46480	65.20	6	76.687	
1791.30650	54.50	3	36.697	
1807.67780	12.70	2	78.740	
1869.58950	11.30	2	88.496	
1908.10250	63.20	3	31.646	
1971.77540	12.90	3	155.039	
1991.37770	68.50	4	43.796	
2046.03780	15.90	3	125.786	
2088.38730	52.30	3	38.241	
2104.61840	60.10	3	33.278	
2124.34230	21.80	2	45.872	
2193.31810	17.90	4	167.598	
2281.36320	68.40	4	43.860	
2303.99040	55.00	2	18.182	
2328.46890	41.30	2	24.213	
2380.08570	37.30	2	26.810	
2786.50520	67.40	3	29.674	

t	73	73	73	
	Duration	Count	Frequency	
[s]	[ms]	[-]	[Hz]	
421.25220	460.50	22	45.603	
1193.32460	58.70	4	51.107	
1289.78240	56.00	3	35.714	
1394.07650	162.70	4	18.439	
1429.41430	170.90	6	29.257	
1488.09830	56.30	3	35.524	
1521.72620	48.80	2	20.492	
1590.33930	173.00	4	17.341	
1608.04000	141.00	4	21.277	
1668.37310	147.30	4	20.367	
1680.52800	138.50	5	28.881	
1703.08240	54.90	3	36.430	
1714.04430	50.40	2	19.841	
1731.44850	142.80	6	35.014	
1791.29520	148.90	5	26.864	
1807.67860	60.20	3	33.223	
1869.53570	129.70	5	30.840	
1908.09710	132.50	5	30.189	
1918.83270	53.10	3	37.665	
1936.28950	143.50	8	48.780	
1971.76200	129.70	4	23.130	
1991.37230	138.00	5	28.986	
2001.62510	122.10	5	32.760	
2030.54520	66.70	3	29.985	
2046.03140	144.10	7	41.638	
2088.38180	142.40	6	35.112	
2104.60970	151.70	5	26.368	
2118.39180	119.40	5	33.501	
2124.34650	86.00	8	81.395	
2134.15820	137.10	4	21.882	
2141.52040	80.90	4	37.083	
2154.70180	60.10	2	16.639	
2193.27820	156.90	5	25.494	
2241.33470	167.30	12	65.750	
2281.34920	150.50	3	13.289	
2303.98190	147.50	5	27.119	
2328.44620	151.30	4	19.828	
2380.07130	153.40	10	58.670	
2424.99560	132.30	6	37.793	
2476.01590	152.50	7	39.344	
2503.59750	131.90	5	30.326	
2519.26540	122.80	6	40.717	
2586.57300	144.70	8	48.376	
2786.49970	112.20	4	26.738	
2809.36690	151.50	7	39.604	

t	74	74	74	
	Duration	Count	Frequency	
[s]	[ms]	[-]	[Hz]	
346.47410	164.10	5	24.375	
421.25230	469.50	5	8.520	
1193.32230	288.30	4	10.406	
1289.75250	127.50	3	15.686	
1394.07440	628.50	4	4.773	
1429.41350	258.20	3	7.746	
1488.09700	263.20	3	7.599	
1521.72610	262.20	7	22.883	
1590.33970	91.40	2	10.941	
1608.03080	278.50	5	14.363	
1668.37330	301.00	11	33.223	
1680.52840	275.00	8	25.455	
1703.08320	293.50	5	13.629	
1714.04500	245.10	6	20.400	
1731.44790	263.90	8	26.525	
1791.29080	273.40	6	18.288	
1795.61560	98.80	11	101.215	
1807.67880	230.40	5	17.361	
1869.53070	266.20	5	15.026	
1908.09780	281.00	5	14.235	
1918.83300	257.30	7	23.319	
1936.28510	292.70	7	20.499	
1971.76250	287.40	9	27.836	
1991.36870	255.20	4	11.755	
2001.62520	266.00	6	18.797	
2030.54580	273.30	7	21.954	
2046.03160	252.30	4	11.891	
2088.38280	274.20	5	14.588	
2104.60640	299.10	8	23.404	
2118.38750	294.40	7	20.380	
2124.34020	227.90	11	43.879	
2134.15380	278.10	7	21.575	
2141.52360	228.20	6	21.911	
2154.69870	261.20	5	15.314	
2193.27590	279.40	6	17.895	
2241.33490	313.10	10	28.745	
2281.34720	313.90	6	15.929	
2303.98090	301.60	9	26.525	
2328.44520	281.70	3	7.100	
2380.07170	273.80	6	18.262	
2424.99330	281.60	7	21.307	
2476.01340	279.30	5	14.322	
2503.59750	301.50	13	39.801	
2519.26210	268.40	8	26.080	
2586.57510	261.20	5	15.314	
2786.49630	329.70	4	9.099	
2809.36720	324.40	5	12.330	

t	75	75	75	
	Duration	Count	Frequency	
[s]	[ms]	[-]	[Hz]	
421.25330	248.40	3	8.052	
1193.32990	636.20	6	7.859	
1289.77770	335.70	4	8.937	
1394.07680	658.00	11	15.198	
1429.41500	302.60	4	9.914	
1488.09970	301.30	4	9.957	
1521.72830	302.50	6	16.529	
1590.34190	325.40	4	9.219	
1608.04300	286.40	4	10.475	
1668.38010	301.30	5	13.276	
1680.53030	297.10	5	13.463	
1703.09070	331.50	4	9.050	
1714.04910	291.10	5	13.741	
1731.45460	290.10	8	24.130	
1791.29600	291.70	3	6.856	
1807.68090	272.20	4	11.021	
1869.53930	293.80	4	10.211	
1908.10040	303.30	5	13.188	
1918.84030	279.20	5	14.327	
1936.29050	300.50	5	13.311	
1971.77190	319.10	4	9.401	
1991.37480	328.70	8	21.296	
2001.62940	292.70	7	20.499	
2030.54930	282.70	3	7.075	
2046.03370	316.80	5	12.626	
2088.38680	320.70	5	12.473	
2104.61200	326.70	4	9.183	
2118.39540	322.60	8	21.699	
2124.34150	247.60	7	24.233	
2134.16050	285.90	6	17.489	
2141.52150	261.70	8	26.748	
2154.70430	96.60	2	10.352	
2193.28030	318.60	4	9.416	
2241.33990	328.30	5	12.184	
2281.35500	303.20	3	6.596	
2303.98390	326.50	6	15.314	
2328.44880	304.10	4	9.865	
2380.07420	299.40	4	10.020	
2424.99520	303.90	3	6.581	
2476.01560	303.20	7	19.789	
2503.60320	302.40	5	13.228	
2519.26780	297.80	8	23.506	
2586.58090	308.60	7	19.443	
2786.50150	348.50	6	14.347	
2809.36890	322.00	4	9.317	

t	76	76	76	
	Duration	Count	Frequency	
[s]	[ms]	[-]	[Hz]	
421.24960	257.70	8	27.163	
1193.33040	598.50	7	10.025	
1289.78300	318.20	4	9.428	
1394.07960	670.80	11	14.908	
1429.41840	299.60	4	10.013	
1488.10160	298.10	5	13.418	
1521.73040	304.70	9	26.255	
1590.34370	317.20	5	12.610	
1608.03780	301.80	6	16.567	
1668.38140	103.80	2	9.634	
1680.53560	271.60	4	11.046	
1703.09180	308.10	5	12.983	
1714.04990	271.20	4	11.062	
1731.45620	256.60	3	7.794	
1791.28320	323.40	7	18.553	
1807.68740	270.50	5	14.787	
1869.54070	312.90	6	15.980	
1908.10070	287.80	3	6.949	
1918.82540	296.60	5	13.486	
1936.29100	320.30	6	15.610	
1971.77340	294.60	5	13.578	
1991.37700	319.00	7	18.809	
2001.63170	272.30	5	14.690	
2030.55010	298.10	4	10.064	
2046.03390	263.60	4	11.381	
2088.38770	292.70	5	13.666	
2104.61410	326.40	7	18.382	
2118.39630	326.00	8	21.472	
2124.34480	250.80	8	27.911	
2134.16010	266.20	4	11.270	
2141.52480	243.40	6	20.542	
2154.70390	303.60	6	16.469	
2193.26730	319.20	5	12.531	
2241.34050	336.90	5	11.873	
2281.35600	330.80	5	12.092	
2303.98780	324.90	6	15.389	
2328.44120	322.50	7	18.605	
2380.07560	322.80	6	15.489	
2424.99830	312.00	3	6.410	
2476.01620	101.70	2	9.833	
2503.60290	316.90	9	25.245	
2519.26840	284.80	6	17.556	
2586.58200	299.30	5	13.365	
2786.50240	362.10	4	8.285	
2809.37020	315.00	4	9.524	

t	77	77	77	
	Duration	Count	Frequency	
[s]	[ms]	[-]	[Hz]	
421.25450	146.30	13	82.023	
1193.31840	197.40	9	40.527	
1289.78140	158.60	6	31.526	
1394.07190	220.30	19	81.707	
1429.41750	224.10	9	35.698	
1488.10010	173.50	9	46.110	
1521.73050	162.10	6	30.845	
1590.34250	196.80	16	76.220	
1608.04570	135.00	6	37.037	
1668.38090	126.50	4	23.715	
1680.53620	35.00	3	57.143	
1703.09090	120.60	7	49.751	
1714.04810	127.90	9	62.549	
1731.45330	116.10	5	34.453	
1791.29850	102.00	3	19.608	
1807.64680	40.40	2	24.752	
1869.53910	170.00	8	41.176	
1908.09880	145.00	4	20.690	
1936.28880	199.60	9	40.080	
1971.77300	31.40	2	31.847	
1991.37660	127.70	3	15.662	
2030.55030	92.10	2	10.858	
2046.03380	148.30	5	26.972	
2088.38640	171.80	5	23.283	
2104.61390	231.40	5	17.286	
2118.39840	33.20	3	60.241	
2134.15890	46.30	2	21.598	
2141.52420	35.30	3	56.657	
2154.70400	136.30	4	22.010	
2193.28150	168.80	9	47.393	
2241.33920	91.50	3	21.858	
2281.35550	149.20	4	20.107	
2303.98700	118.10	2	8.467	
2328.44910	145.40	2	6.878	
2380.07520	172.80	6	28.935	
2424.99830	113.70	3	17.590	
2476.01540	164.10	7	36.563	
2503.60220	157.30	5	25.429	
2519.19600	223.70	9	35.762	
2586.57300	170.80	11	58.548	
2786.50200	187.40	6	26.681	
2809.37010	183.90	7	32.626	

t	78	78	78	
	Duration	Count	Frequency	
[s]	[ms]	[-]	[Hz]	
421.26390	241.30	10	37.298	
1193.34190	246.30	13	48.721	
1289.79380	290.00	18	58.621	
1394.08980	188.90	8	37.057	
1429.42060	255.80	7	23.456	
1488.10810	276.30	16	54.289	
1521.73660	214.30	13	55.996	
1590.35290	161.00	3	12.422	
1608.05510	199.20	11	50.201	
1668.39090	236.40	13	50.761	
1680.53850	222.50	8	31.461	
1703.09580	216.80	11	46.125	
1714.05610	200.40	8	34.930	
1731.46350	208.00	7	28.846	
1791.30610	261.20	10	34.456	
1807.64460	293.90	16	51.038	
1869.54530	262.60	10	34.273	
1908.10890	277.30	10	32.456	
1918.84860	221.70	8	31.574	
1936.29550	150.70	6	33.179	
1971.78230	232.90	13	51.524	
1991.38240	210.20	7	28.544	
2001.64180	232.80	17	68.729	
2030.55780	266.10	14	48.854	
2046.04520	200.20	7	29.970	
2088.39460	225.80	9	35.430	
2104.61950	180.10	5	22.210	
2118.39830	191.00	13	62.827	
2124.35840	221.70	9	36.085	
2134.17110	203.10	5	19.695	
2141.53650	45.40	2	22.026	
2154.70960	166.00	6	30.120	
2193.28990	228.00	10	39.474	
2241.35090	258.70	12	42.520	
2281.36700	251.50	16	59.642	
2303.99880	216.70	12	50.761	
2328.45930	221.60	10	40.614	
2380.07470	215.20	14	60.409	
2424.99850	242.90	13	49.403	
2476.02760	224.80	9	35.587	
2503.61430	197.00	10	45.685	
2519.27620	200.80	12	54.781	
2586.58680	217.80	14	59.688	
2786.50300	292.50	9	27.350	
2809.37780	261.70	16	57.318	

t	82	82	82	
	Duration	Count	Frequency	
[s]	[ms]	[-]	[Hz]	

t	83	83	83	
	Duration	Count	Frequency	
[s]	[ms]	[-]	[Hz]	

t	84	84	84	
	Duration	Count	Frequency	
[s]	[ms]	[-]	[Hz]	
421.27080	330.20	19	54.512	
1193.32120	370.90	13	32.354	
1289.77590	381.40	18	44.573	
1394.07330	296.60	6	16.858	
1429.41490	297.80	6	16.790	
1488.09420	333.00	10	27.027	
1521.72520	341.50	6	14.641	
1590.33900	27.90	3	71.685	
1608.03680	272.90	7	21.986	
1668.37220	261.70	8	26.748	
1680.52970	262.80	6	19.026	
1703.08180	293.30	7	20.457	
1714.03890	260.40	9	30.722	
1731.45210	43.20	5	92.593	
1791.28640	130.30	8	53.722	
1807.68310	330.60	13	36.298	
1869.53740	315.00	7	19.048	
1908.09670	119.90	5	33.361	
1918.83230	120.50	5	33.195	
1936.28600	124.00	8	56.452	
1971.76100	269.40	6	18.560	
1991.36640	221.50	7	27.088	
2001.62680	267.30	5	14.964	
2030.54300	325.70	8	21.492	
2046.01340	143.50	8	48.780	
2088.37930	281.50	8	24.867	
2104.60610	48.20	7	124.481	
2118.39040	35.00	4	85.714	
2124.34010	258.60	6	19.335	
2134.15370	112.00	4	26.786	
2141.52730	245.00	6	20.408	
2154.70170	27.50	3	72.727	
2193.30320	114.90	5	34.813	
2241.33870	127.50	5	31.373	
2281.34950	287.20	8	24.373	
2303.98360	291.70	5	13.713	
2328.44460	112.90	5	35.430	
2380.07150	114.30	8	61.242	
2424.99220	125.80	8	55.644	
2476.00200	129.60	7	46.296	
2503.60350	117.00	7	51.282	
2519.26580	227.70	8	30.742	
2586.57850	119.10	7	50.378	
2786.49420	127.80	9	62.598	
2809.36720	117.30	8	59.676	

t	85	85	85	
	Duration	Count	Frequency	
[s]	[ms]	[-]	[Hz]	
421.24440	289.10	13	41.508	
1193.32090	299.10	4	10.030	
1289.77520	310.70	6	16.093	
1394.06910	143.70	4	20.877	
1429.41020	324.20	5	12.338	
1488.09410	277.10	10	32.479	
1521.72390	270.20	4	11.103	
1590.33790	132.60	4	22.624	
1608.03630	40.70	4	73.710	
1668.37150	130.50	5	30.651	
1680.52830	38.10	3	52.493	
1703.08160	37.90	5	105.541	
1714.03910	39.40	3	50.761	
1731.45070	115.00	4	26.087	
1791.28750	120.10	7	49.958	
1807.67820	252.30	7	23.781	
1869.52970	117.30	5	34.101	
1908.09220	138.20	7	43.415	
1918.83050	35.90	2	27.855	
1936.28110	37.20	3	53.763	
1971.76130	242.50	6	20.619	
1991.36690	135.50	4	22.140	
2001.62460	52.50	3	38.095	
2030.54190	288.40	5	13.870	
2046.02600	34.40	3	58.140	
2088.37780	122.10	4	24.570	
2104.60610	122.50	5	32.653	
2118.38780	114.70	6	43.592	
2124.34010	85.80	8	81.585	
2134.15310	100.90	6	49.554	
2141.51860	46.60	4	64.378	
2154.69770	36.00	4	83.333	
2193.27360	33.70	5	118.694	
2241.33100	36.00	2	27.778	
2281.34660	252.70	7	23.744	
2303.97700	46.50	3	43.011	
2328.44240	123.20	6	40.584	
2380.07090	33.10	2	30.211	
2424.99260	132.90	7	45.147	
2476.00930	260.70	5	15.343	
2503.59270	37.50	3	53.333	
2519.25280	130.50	6	38.314	
2586.57480	114.80	5	34.843	
2786.49390	300.30	4	9.990	
2809.36300	36.20	3	55.249	

t	86	86	86	
	Duration	Count	Frequency	
[s]	[ms]	[-]	[Hz]	
421.25170	363.10	8	19.278	
1193.32160	380.80	10	23.634	
1289.77700	340.10	6	14.702	
1394.07180	386.90	9	20.677	
1429.41100	371.60	11	26.911	
1488.09760	380.20	10	23.672	
1521.72740	373.90	6	13.373	
1590.33940	385.40	9	20.758	
1608.04560	348.90	13	34.394	
1668.37740	358.60	7	16.732	
1680.52990	310.90	7	19.299	
1703.08890	346.00	8	20.231	
1714.04660	338.40	11	29.551	
1731.45200	327.30	7	18.332	
1791.29410	326.70	9	24.487	
1807.68310	131.90	4	22.745	
1869.53580	382.30	10	23.542	
1908.09850	347.60	8	20.138	
1918.83740	342.10	8	20.462	
1936.28390	336.50	10	26.746	
1971.76280	369.30	9	21.663	
1991.37140	351.50	12	31.294	
2001.62420	351.80	13	34.110	
2030.54870	393.00	11	25.445	
2046.03270	373.00	8	18.767	
2088.38180	391.70	10	22.977	
2104.60810	166.20	8	42.118	
2118.38920	296.10	11	33.772	
2124.34930	339.40	9	23.571	
2134.15860	297.50	10	30.252	
2141.52310	302.70	10	29.732	
2154.70140	351.00	16	42.735	
2193.27830	344.50	6	14.514	
2241.33550	359.30	7	16.699	
2281.34920	389.10	13	30.840	
2303.98300	351.10	7	17.089	
2328.44480	348.80	10	25.803	
2380.07190	319.10	7	18.803	
2424.99340	369.30	7	16.247	
2476.01180	379.70	11	26.337	
2503.60110	334.90	12	32.846	
2519.26680	321.20	9	24.907	
2586.57630	366.20	7	16.384	
2786.49550	415.40	8	16.851	
2809.36830	384.30	10	23.419	

t	87	87	87	
	Duration	Count	Frequency	
[s]	[ms]	[-]	[Hz]	
421.26280	308.30	4	9.731	
1193.32630	350.00	11	28.571	
1289.78090	359.90	7	16.671	
1394.07790	353.60	8	19.796	
1429.41500	345.10	5	11.591	
1488.10000	346.70	6	14.422	
1521.73090	332.30	7	18.056	
1590.34420	325.00	8	21.538	
1608.04610	115.70	4	25.929	
1668.37760	333.90	7	17.969	
1680.53430	312.00	6	16.026	
1703.08980	325.70	6	15.352	
1714.04860	321.40	12	34.225	
1731.45160	294.80	5	13.569	
1791.29380	323.80	6	15.442	
1807.68370	330.20	7	18.171	
1869.53820	355.50	6	14.065	
1908.09810	320.60	5	12.477	
1918.83990	317.90	6	15.728	
1936.28430	318.60	5	12.555	
1971.76740	363.10	8	19.278	
1991.37320	311.40	5	12.845	
2001.62940	306.80	8	22.816	
2030.54280	382.10	11	26.171	
2046.03300	127.10	4	23.603	
2088.38200	339.30	7	17.683	
2104.61340	287.50	6	17.391	
2118.39370	129.10	4	23.238	
2124.35030	286.50	9	27.923	
2134.15980	121.90	6	41.017	
2141.52550	275.20	7	21.802	
2154.70260	275.30	5	14.530	
2193.28840	300.60	5	13.307	
2241.33520	324.30	5	12.334	
2281.35320	354.60	6	14.100	
2303.98560	337.60	6	14.810	
2328.44600	350.30	9	22.838	
2380.07160	346.10	9	23.115	
2424.99530	317.80	4	9.440	
2476.01220	340.90	9	23.467	
2503.60040	314.30	7	19.090	
2519.26790	291.00	6	17.182	
2586.58130	117.40	3	17.036	
2786.49530	399.00	6	12.531	
2809.36900	357.80	9	22.359	



Numerical Results:

Channel	Number Of Spikes	Number Of Bursts	% Spikes in Bursts	Mean Burst Duration	Mean Spikes In Bursts	 Mean Interburst Interval
				[ms]		[ms]
12	442	47	96.8	165.94	9.11	51748.34
13	1833	114	84.7	913.96	13.62	21985.15
14	900	91	97.6	661.77	9.65	30219.93
15	0	0	NaN	NaN	NaN	NaN
16	44	8	70.5	281.55	3.88	43284.61
17	517	51	96.1	285.84	9.75	47037.72
21	616	51	97.6	352.33	11.78	47409.23
22	582	67	94.3	408.46	8.19	41658.25
23	366	47	98.4	246.48	7.66	57148.52
24	714	75	97.9	580.34	9.32	34077.37
25	0	0	NaN	NaN	NaN	NaN
26	552	58	97.5	386.12	9.28	41509.20
27	277	42	96.8	182.98	6.38	58060.06
28	55	6	38.2	51.27	3.50	297310.44
31	1	0	0.0	NaN	NaN	NaN
32	0	0	NaN	NaN	NaN	NaN
33	0	0	NaN	NaN	NaN	NaN
34	791	91	94.1	476.33	8.18	30673.49
35	374	48	97.1	404.00	7.56	50406.60
36	584	45	99.3	362.01	12.89	53911.81
37	177	35	86.4	131.94	4.37	70104.67
38	193	17	33.2	191.31	3.76	147627.43
41	0	0	NaN	NaN	NaN	NaN
42	0	0	NaN	NaN	NaN	NaN
43	0	0	NaN	NaN	NaN	NaN
44	335	64	94.3	426.38	4.94	43745.12
45	124	20	79.0	237.10	4.90	102856.61
46	784	48	96.7	403.06	15.79	51428.74
47	214	39	92.5	98.32	5.08	62745.26
48	46	4	28.3	216.93	3.25	339495.63
51	208	27	88.0	207.93	6.78	91636.80
52	0	0	NaN	NaN	NaN	NaN
53	12	2	33.3	16.05	2.00	35291.20
54	0	0	NaN	NaN	NaN	NaN
55	432	59	97.0	403.64	7.10	47576.22
56	505	44	96.2	342.80	11.05	55189.17
57	85	13	74.1	61.92	4.85	124734.15
58	4	0	0.0	NaN	NaN	NaN
61	0	0	NaN	NaN	NaN	NaN
62	154	40	94.2	63.04	3.63	61170.80
63	289	46	95.5	218.14	6.00	52852.03
64	496	47	97.2	293.08	10.26	58723.84
65	253	46	98.0	130.51	5.39	52939.04
66	316	47	96.8	182.85	6.51	51733.89
67	328	44	97.9	150.41	7.30	55386.61
68	111	26	71.2	61.67	3.04	64580.08
71	0	0	NaN	NaN	NaN	NaN
72	142	31	87.3	51.02	4.00	78791.28
73	252	45	95.6	128.50	5.36	54147.35
74	298	47	97.7	274.82	6.19	53267.41
75	238	45	97.5	313.70	5.16	53961.84
76	251	45	97.6	306.56	5.44	53969.10
77	285	42	89.5	140.42	6.07	58107.36
78	484	45	97.1	222.87	10.44	54053.33
82	0	0	NaN	NaN	NaN	NaN
83	1	0	0.0	NaN	NaN	NaN
84	336	45	98.5	203.60	7.36	54069.36
85	226	45	97.8	134.87	4.91	54138.31
86	420	45	98.1	345.45	9.16	53930.81
87	302	45	97.7	305.51	6.56	53970.82
