Multi Channel Experimenter Burst Analyzer ASCII Export


Parameters:

t	12	12	12	
	Duration	Count	Frequency	
[s]	[ms]	[-]	[Hz]	
74.61160	508.20	6	9.839	
812.98720	451.50	7	13.289	
883.53230	471.90	8	14.834	
932.28270	29.60	4	101.351	
1477.43210	433.20	8	16.159	
1626.53340	483.50	9	16.546	
1748.46180	443.20	9	18.051	
1897.42850	507.30	14	25.626	
2112.14360	272.00	10	33.088	
2250.26210	534.00	12	20.599	
2322.21730	547.20	12	20.102	
2389.80590	30.70	4	97.720	
2463.14900	508.80	21	39.308	

t	13	13	13	
	Duration	Count	Frequency	
[s]	[ms]	[-]	[Hz]	
74.60660	559.10	4	5.366	
188.35630	407.80	14	31.878	
580.79930	60.00	5	66.667	
812.98070	556.30	5	7.190	
883.52520	541.50	8	12.927	
1138.32350	359.40	14	36.171	
1477.42510	542.20	5	7.377	
1626.52570	647.60	14	20.074	
1650.13230	297.20	16	50.471	
1748.45720	586.40	6	8.527	
1897.43060	574.10	11	17.419	
2112.11440	661.70	26	37.781	
2250.25930	607.10	5	6.589	
2258.08070	394.60	25	60.821	
2322.21380	553.70	7	10.836	
2389.82380	15.70	3	127.389	
2463.14750	622.40	14	20.887	
2623.52720	137.20	5	29.155	

t	14	14	14	
	Duration	Count	Frequency	
[s]	[ms]	[-]	[Hz]	
74.60090	1034.20	7	5.802	
208.88480	20.50	3	97.561	
812.97560	1146.70	10	7.849	
883.51990	635.40	6	7.869	
1138.29220	512.80	7	11.700	
1477.41790	710.90	4	4.220	
1626.52120	739.50	9	10.818	
1650.11150	469.90	9	17.025	
1748.45540	663.40	5	6.030	
1897.42370	786.00	6	6.361	
2111.99140	933.60	19	19.280	
2250.25320	749.30	3	2.669	
2258.06260	540.60	7	11.099	
2322.21030	650.40	5	6.150	
2463.14340	739.30	9	10.821	
2623.51720	217.00	3	9.217	

t	15	15	15	
	Duration	Count	Frequency	
[s]	[ms]	[-]	[Hz]	

t	16	16	16	
	Duration	Count	Frequency	
[s]	[ms]	[-]	[Hz]	
0.36610	19.20	3	104.167	
2042.88020	377.00	4	7.958	
2048.88680	3089.10	11	3.237	
2054.40200	1805.80	6	2.769	
2058.26980	1102.80	21	18.136	
2062.10850	1425.00	13	8.421	
2065.73990	1636.00	9	4.890	
2070.93360	2154.20	11	4.642	
2076.54760	1952.10	12	5.635	
2081.27350	15151.30	79	5.148	
2186.60970	55.30	4	54.250	
2223.10440	117.00	3	17.094	
2243.45580	29.30	3	68.259	
2257.42950	2099.50	13	5.716	
2261.74560	1755.80	7	3.417	
2265.64710	2174.00	9	3.680	
2270.51160	3427.10	35	9.921	
2277.04680	2790.80	12	3.942	
2289.46800	4753.10	30	6.101	
2296.58720	84.90	6	58.893	
2312.87120	5546.90	15	2.524	
2342.00260	26838.10	186	6.893	
2370.86650	143.70	2	6.959	
2373.47020	2483.70	12	4.429	
2378.61300	710.90	5	5.627	
2382.71960	60139.40	396	6.568	
2445.30880	5593.40	34	5.900	
2454.88420	85263.60	562	6.580	
2543.67670	1483.20	4	2.023	
2548.25440	8733.90	37	4.122	
2563.35930	2950.10	28	9.152	
2568.61180	6356.90	24	3.618	
2580.35290	5235.60	30	5.539	
2589.87040	21011.80	128	6.044	
2616.04400	12040.30	97	7.973	
2630.27090	281.30	8	24.884	
2642.02940	34630.60	222	6.382	
2691.79680	12.30	2	81.301	
2708.58240	70.10	5	57.061	
2710.75280	1078.30	10	8.346	
2714.10400	875.00	17	18.286	
2718.75900	22.40	2	44.643	
2724.70300	43.40	4	69.124	
2738.34950	35.80	3	55.866	

t	17	17	17	
	Duration	Count	Frequency	
[s]	[ms]	[-]	[Hz]	
74.62240	373.60	15	37.473	
156.36590	38.40	4	78.125	
280.15860	18.80	2	53.191	
583.27580	143.60	2	6.964	
599.49690	29.40	3	68.027	
619.60530	327.20	10	27.506	
812.99900	748.20	17	21.385	
883.54230	298.30	9	26.819	
922.70480	27.90	3	71.685	
958.85950	69.30	4	43.290	
970.93370	65.40	2	15.291	
1027.91280	20.30	2	49.261	
1138.32650	85.80	5	46.620	
1167.00420	356.40	9	22.447	
1417.46790	220.40	3	9.074	
1428.24640	69.00	3	28.986	
1474.90230	55.30	2	18.083	
1477.41080	149.70	4	20.040	
1596.84020	10.40	2	96.154	
1626.54720	528.00	13	22.727	
1650.23160	52.00	2	19.231	
1748.48950	467.70	4	6.414	
1897.45700	459.20	8	15.244	
2112.20110	465.50	12	23.631	
2250.28130	478.40	11	20.903	
2258.07900	296.90	3	6.736	
2322.21340	339.90	5	11.768	
2389.48770	60.00	2	16.667	
2410.53330	314.00	2	3.185	
2432.71570	284.00	4	10.563	
2463.16790	447.70	9	17.869	
2638.37190	456.60	6	10.951	
2764.33450	106.50	2	9.390	

t	21	21	21	
	Duration	Count	Frequency	
[s]	[ms]	[-]	[Hz]	
74.59640	1176.40	15	11.901	
590.95960	25.20	2	39.683	
626.02790	297.90	5	13.427	
727.36960	15.70	3	127.389	
812.97190	1256.80	10	7.161	
883.51740	1020.30	6	4.901	
1138.39000	11.30	5	353.982	
1161.62690	26.00	2	38.462	
1477.41600	974.50	4	3.079	
1626.51720	622.80	6	8.028	
1748.45110	1113.00	4	2.695	
1897.41870	597.40	3	3.348	
2112.15510	519.20	13	23.112	
2250.25150	1013.10	7	5.922	
2258.09440	324.70	9	24.638	
2322.20760	573.20	3	3.489	
2389.78930	211.50	10	42.553	
2463.14230	959.00	5	4.171	
2563.92470	13.10	2	76.336	
2623.51720	266.20	9	30.053	

t	22	22	22	
	Duration	Count	Frequency	
[s]	[ms]	[-]	[Hz]	
74.60390	1189.50	11	8.407	
128.77960	397.30	6	12.585	
131.36910	20.50	2	48.780	
136.90870	26.90	3	74.349	
272.45390	14.90	2	67.114	
277.18120	40.90	3	48.900	
309.74100	797.90	18	21.306	
318.30850	50.20	4	59.761	
374.85230	59.90	2	16.694	
391.98040	35.10	3	56.980	
446.48420	40.50	7	148.148	
534.88310	22.90	5	174.672	
626.04250	80.10	4	37.453	
727.35650	56.00	3	35.714	
812.97660	827.10	5	4.836	
852.70060	507.90	15	27.564	
863.40180	869.40	4	3.451	
883.52420	999.50	4	3.002	
999.28320	63.50	3	31.496	
1036.29550	62.40	7	96.154	
1092.21230	10.20	3	196.078	
1138.38860	2225.90	14	5.840	
1161.62670	26.20	2	38.168	
1190.70620	20.40	2	49.020	
1310.28710	742.30	17	21.555	
1473.83960	366.40	7	16.376	
1477.42640	545.00	3	3.670	
1545.36680	309.00	3	6.472	
1626.52790	158.90	2	6.293	
1650.20640	845.70	19	21.284	
1694.97000	331.10	4	9.061	
1728.09890	709.70	8	9.863	
1748.45220	516.80	3	3.870	
1803.39870	673.10	6	7.428	
1897.41940	551.70	4	5.438	
2112.13980	326.70	16	45.914	
2250.25380	597.30	4	5.023	
2258.11440	272.60	9	29.347	
2322.20700	544.10	5	7.352	
2326.87760	300.10	16	49.983	
2389.76450	274.50	10	32.787	
2463.14230	564.40	3	3.544	
2563.91150	25.60	3	78.125	
2623.51340	276.70	3	7.228	
2632.29170	635.20	17	25.189	
2638.34840	599.90	6	8.335	

t	23	23	23	
	Duration	Count	Frequency	
[s]	[ms]	[-]	[Hz]	
74.60370	533.90	5	7.492	
812.97820	522.80	7	11.477	
883.52380	471.90	7	12.715	
1294.28060	417.60	7	14.368	
1477.42240	506.60	7	11.844	
1626.52560	468.70	10	19.202	
1748.45940	455.10	4	6.592	
1897.42900	489.00	7	12.270	
2250.25680	529.60	6	9.441	
2322.21480	477.70	7	12.560	
2389.80620	10.70	2	93.458	
2463.14490	506.90	8	13.809	

t	24	24	24	
	Duration	Count	Frequency	
[s]	[ms]	[-]	[Hz]	
74.59460	1083.10	10	8.309	
812.96500	963.30	4	3.114	
883.51610	587.50	7	10.213	
999.28850	43.70	5	91.533	
1138.30910	371.80	14	34.965	
1477.41450	592.90	4	5.060	
1490.15970	11.90	3	168.067	
1626.51610	645.20	10	13.949	
1650.13560	296.20	20	64.146	
1748.45390	562.30	3	3.557	
1897.41840	592.60	3	3.375	
2112.13650	647.80	15	21.612	
2250.25030	161.00	3	12.422	
2258.07170	393.40	12	27.961	
2322.20470	566.30	6	8.829	
2389.76230	252.20	10	35.686	
2463.13630	582.50	4	5.150	
2623.51260	220.70	11	45.310	

t	25	25	25	
	Duration	Count	Frequency	
[s]	[ms]	[-]	[Hz]	

t	26	26	26	
	Duration	Count	Frequency	
[s]	[ms]	[-]	[Hz]	
74.59460	464.60	9	17.219	
151.81550	1279.00	7	4.691	
158.85720	224.00	3	8.929	
164.38680	472.70	3	4.231	
209.58690	269.70	8	25.955	
217.63890	163.80	4	18.315	
237.23130	49.90	2	20.040	
241.71560	84.80	2	11.792	
288.27680	962.80	11	10.386	
339.55810	634.20	5	6.307	
360.61340	96.10	4	31.217	
384.33780	221.50	3	9.029	
419.99270	113.70	2	8.795	
422.37690	197.90	2	5.053	
471.70230	13.00	2	76.923	
477.80610	17.70	4	169.492	
515.68050	90.10	3	22.198	
520.60860	461.90	2	2.165	
527.68050	3387.50	15	4.133	
574.66420	843.90	3	2.370	
580.22880	3764.20	8	1.860	
595.28140	302.20	3	6.618	
599.37690	139.20	3	14.368	
605.72570	90.10	2	11.099	
617.68230	149.10	2	6.707	
632.61610	1265.00	4	2.372	
651.63750	1377.70	5	2.903	
668.81330	82.30	3	24.301	
702.98530	489.10	3	4.089	
726.99210	445.60	2	2.244	
748.39840	597.30	5	6.697	
751.07640	486.00	2	2.058	
792.85770	462.90	2	2.160	
798.13600	47.20	2	21.186	
804.41390	424.60	3	4.710	
812.97370	771.00	12	14.267	
818.26870	2017.60	4	1.487	
823.33610	114.10	2	8.764	
860.04850	222.00	2	4.505	
883.51110	364.70	8	19.194	
903.31630	751.40	3	2.662	
909.38910	473.90	2	2.110	
941.62440	50.30	3	39.761	
970.67900	319.50	3	6.260	
991.81040	236.70	2	4.225	
1016.13590	81.00	2	12.346	
1027.91100	20.50	2	48.780	
1044.08620	822.20	4	3.649	
1048.82800	105.90	2	9.443	
1054.86310	28.40	4	105.634	
1057.44380	508.80	2	1.965	
1083.12830	189.70	2	5.271	
1090.80910	417.30	5	9.585	
1120.71370	4235.90	20	4.485	
1138.34330	71.90	6	69.541	
1155.20630	4395.00	8	1.593	
1168.30650	40.70	2	24.570	
1172.10460	586.80	2	1.704	
1195.37080	394.70	2	2.534	
1228.03700	532.10	2	1.879	
1239.55300	681.50	5	5.869	
1295.80520	275.00	2	3.636	
1300.08630	482.90	7	12.425	
1321.96550	16.90	2	59.172	
1325.07500	1363.10	4	2.201	
1334.77620	187.00	2	5.348	
1370.21910	55.10	2	18.149	
1381.37610	37.60	2	26.596	
1389.76300	693.40	20	27.401	
1417.67540	369.50	2	2.706	
1466.69310	1184.90	5	3.376	
1477.41170	390.50	12	28.169	
1479.83220	1286.50	3	1.555	
1518.50100	989.70	38	37.385	
1553.45660	681.80	3	2.933	
1626.52050	1390.30	21	14.385	
1650.21470	53.00	2	18.868	
1654.51580	14.60	2	68.493	
1677.08640	570.30	2	1.753	
1722.35380	1482.40	5	2.698	
1748.46290	386.80	9	20.683	
1763.97180	335.20	12	32.816	
1817.00570	153.20	2	6.527	
1829.41450	61.50	2	16.260	
1845.41490	10.00	2	100.000	
1897.44640	424.60	6	11.776	
1933.31200	416.70	3	4.800	
1949.40010	382.70	8	18.291	
1987.89960	2379.00	9	3.363	
1994.68270	1186.60	3	1.685	
2004.45800	1195.20	8	5.857	
2022.15810	10.00	2	100.000	
2041.86300	786.30	4	3.815	
2045.82970	44.60	2	22.422	
2108.43630	251.30	2	3.979	
2111.96230	714.90	15	19.583	
2116.47570	390.60	2	2.560	
2139.54000	297.50	2	3.361	
2160.55620	880.40	4	3.408	
2174.50630	159.90	2	6.254	
2185.45700	582.80	2	1.716	
2190.45530	2928.30	6	1.707	
2224.35240	11.90	2	84.034	
2237.90820	98.20	2	10.183	
2243.82210	47.10	5	84.926	
2250.27130	428.20	5	9.341	
2256.14660	937.90	4	3.199	
2291.69530	10.70	2	93.458	
2322.21790	315.40	13	38.047	
2336.39530	1239.90	6	4.033	
2347.83900	328.60	2	3.043	
2357.59370	23.20	3	86.207	
2359.63870	414.00	2	2.415	
2362.84120	3413.00	6	1.465	
2372.27910	2213.00	7	2.711	
2384.46570	2021.50	4	1.484	
2389.09670	1600.90	7	3.748	
2423.67840	341.50	2	2.928	
2440.12710	188.80	11	52.966	
2444.36660	20.80	2	48.077	
2463.16110	213.40	3	9.372	
2470.56080	172.90	2	5.784	
2511.03200	192.30	2	5.200	
2516.30310	145.90	2	6.854	
2547.24250	436.50	2	2.291	
2552.67660	1531.00	4	1.960	
2573.20060	153.40	2	6.519	
2591.60000	2266.60	4	1.324	
2599.44800	222.90	2	4.486	
2637.32800	1279.60	8	5.470	
2642.81200	4269.50	10	2.108	
2649.32880	555.30	2	1.801	
2711.75430	26.50	4	113.208	
2719.51610	1301.20	4	2.306	
2762.36370	2088.50	5	1.915	

t	27	27	27	
	Duration	Count	Frequency	
[s]	[ms]	[-]	[Hz]	
74.58890	39.40	4	76.142	
599.49880	31.50	3	63.492	
812.96840	98.40	7	60.976	
883.51220	69.10	6	72.359	
1166.93940	435.00	22	48.276	
1477.40130	110.80	9	72.202	
1626.52190	35.80	3	55.866	
1748.45610	64.80	7	92.593	
1859.25150	10.60	3	188.679	
1897.46380	37.50	6	133.333	
2250.24920	75.50	5	52.980	
2322.20990	64.40	7	93.168	
2463.18060	36.70	3	54.496	

t	28	28	28	
	Duration	Count	Frequency	
[s]	[ms]	[-]	[Hz]	
19.82600	573.50	7	10.462	
66.40410	33.30	4	90.090	
74.58540	239.50	3	8.351	
169.89340	289.20	6	17.289	
177.95220	80.50	2	12.422	
251.31980	33.90	2	29.499	
268.90960	65.50	3	30.534	
285.89360	300.40	14	43.276	
339.30340	2120.90	35	16.031	
363.60180	477.10	6	10.480	
375.47240	49.00	4	61.224	
385.89160	305.50	8	22.913	
424.56810	24.40	4	122.951	
444.33440	180.70	3	11.068	
476.55320	79.80	3	25.063	
491.71630	15.30	4	196.078	
546.09550	1437.60	31	20.868	
572.65160	324.50	12	33.898	
591.70850	10.40	3	192.308	
617.25160	26.90	6	185.874	
662.30770	506.20	9	15.804	
690.58390	457.00	12	24.070	
740.76090	467.30	13	25.679	
812.96450	31.00	3	64.516	
835.68740	292.60	5	13.671	
861.23340	17.50	2	57.143	
883.50670	37.40	2	26.738	
898.08290	31.40	4	95.541	
1019.05570	422.10	6	11.846	
1035.35480	40.90	4	73.350	
1132.42600	262.80	8	26.636	
1166.65570	411.20	4	7.296	
1302.43810	347.20	13	34.562	
1368.16050	278.80	12	39.455	
1446.04260	54.30	2	18.416	
1466.75990	295.80	5	13.523	
1477.40170	85.80	5	46.620	
1613.01010	19.50	3	102.564	
1626.52270	31.50	3	63.492	
1675.08990	300.20	12	36.642	
1703.22380	244.70	6	20.433	
1748.45400	78.40	6	63.776	
1897.42700	78.70	5	50.826	
1911.73310	351.20	4	8.542	
2131.91110	504.30	10	17.847	
2135.77170	319.80	7	18.762	
2138.27500	14.00	3	142.857	
2170.31990	295.60	6	16.915	
2246.58650	44.20	3	45.249	
2250.24500	82.50	3	24.242	
2272.29470	296.50	17	53.963	
2278.74080	280.00	7	21.429	
2322.20520	83.20	5	48.077	
2370.86430	2080.00	10	4.327	
2463.13830	81.60	5	49.020	
2543.19460	338.30	12	32.516	
2550.40620	18.40	2	54.348	
2560.78580	380.90	7	15.752	
2637.81290	601.70	7	9.972	
2707.53220	14.50	3	137.931	
2719.58080	673.30	12	16.337	

t	31	31	31	
	Duration	Count	Frequency	
[s]	[ms]	[-]	[Hz]	

t	32	32	32	
	Duration	Count	Frequency	
[s]	[ms]	[-]	[Hz]	

t	33	33	33	
	Duration	Count	Frequency	
[s]	[ms]	[-]	[Hz]	

t	34	34	34	
	Duration	Count	Frequency	
[s]	[ms]	[-]	[Hz]	
74.58220	1203.70	31	24.923	
85.59090	13.40	3	149.254	
272.45330	20.60	2	48.544	
374.86970	26.70	4	112.360	
626.03440	91.10	5	43.908	
727.35960	37.90	7	158.311	
759.78920	657.60	13	18.248	
812.94690	1119.10	27	23.233	
883.50740	1021.30	25	23.499	
939.89150	26.30	4	114.068	
999.27970	276.20	15	50.688	
1138.39530	174.60	3	11.455	
1161.62600	27.10	2	36.900	
1477.40620	983.60	14	13.217	
1626.51200	145.30	2	6.882	
1748.44190	748.60	6	6.679	
1897.41430	148.10	2	6.752	
2112.16630	424.80	13	28.249	
2233.78430	76.90	6	65.020	
2250.24580	1042.90	12	10.548	
2258.08960	78.30	3	25.543	
2322.19410	880.50	10	10.221	
2389.75740	296.70	3	6.741	
2463.12880	968.90	5	4.128	
2623.50190	312.90	5	12.784	

t	35	35	35	
	Duration	Count	Frequency	
[s]	[ms]	[-]	[Hz]	
45.90370	11.40	3	175.439	
74.59940	530.70	3	3.769	
167.55300	17.20	2	58.140	
237.26010	83.20	2	12.019	
242.51270	499.70	12	22.013	
345.77370	58.90	6	84.890	
488.02950	262.80	6	19.026	
676.88570	69.80	8	100.287	
702.98850	78.70	3	25.413	
759.81940	85.90	7	69.849	
801.80660	41.50	2	24.096	
812.96470	560.30	7	10.709	
820.12340	568.00	28	47.535	
883.51560	497.60	6	10.048	
982.11530	66.40	2	15.060	
998.65550	671.80	4	4.466	
1009.46290	296.30	7	20.250	
1075.41730	509.50	2	1.963	
1137.10140	661.50	4	4.535	
1144.23160	462.90	3	4.321	
1206.08810	37.60	3	53.191	
1333.36570	353.50	6	14.144	
1336.38760	52.80	5	75.758	
1417.36610	1683.50	7	3.564	
1422.11070	7299.50	23	3.014	
1446.30780	714.40	9	11.198	
1477.41670	508.40	5	7.868	
1490.10790	394.20	11	25.368	
1626.51400	520.20	15	26.913	
1650.16440	110.20	2	9.074	
1748.45690	477.10	7	12.576	
1897.42190	574.30	9	13.930	
2034.60050	476.80	14	27.265	
2112.21710	375.80	3	5.322	
2250.24990	561.30	10	16.034	
2258.09340	25.70	3	77.821	
2322.20760	473.40	7	12.674	
2389.79780	31.20	4	96.154	
2463.13900	546.80	9	14.631	
2623.51800	176.20	4	17.026	

t	36	36	36	
	Duration	Count	Frequency	
[s]	[ms]	[-]	[Hz]	
74.58210	444.60	15	31.489	
87.24560	296.50	3	6.745	
98.46970	1767.00	5	2.264	
170.87000	524.30	2	1.907	
257.22890	13.60	2	73.529	
340.19350	102.70	6	48.685	
346.21610	549.90	2	1.819	
360.61480	82.10	3	24.361	
384.33910	215.90	2	4.632	
422.37730	196.80	2	5.081	
426.68690	74.60	2	13.405	
471.70270	21.30	3	93.897	
515.68000	91.10	3	21.954	
520.60940	1756.00	5	2.278	
527.68010	1331.60	3	1.502	
595.28160	302.90	3	6.603	
599.31410	203.10	4	14.771	
617.68230	148.10	2	6.752	
621.55970	427.70	2	2.338	
651.63790	2410.70	6	2.074	
668.81320	81.90	3	24.420	
702.98530	80.40	2	12.438	
748.39990	84.00	2	11.905	
798.13540	49.10	2	20.367	
804.41420	98.40	2	10.163	
812.96570	366.60	15	38.189	
818.26850	2017.30	5	1.983	
823.33470	115.70	2	8.643	
860.04860	223.30	2	4.478	
871.76340	83.00	2	12.048	
883.50080	308.70	15	45.351	
908.88800	974.30	5	4.106	
970.67950	320.40	3	6.242	
982.77130	890.40	3	2.246	
1016.13640	79.40	3	25.189	
1027.91260	20.80	3	96.154	
1044.08730	823.70	4	3.642	
1048.82950	105.40	2	9.488	
1057.20850	747.70	3	2.675	
1077.25850	193.40	2	5.171	
1086.91610	554.20	2	1.804	
1120.22280	4726.70	10	1.904	
1155.20640	2832.00	5	1.412	
1168.31050	37.50	2	26.667	
1195.37030	1999.90	4	1.500	
1240.13160	1349.50	4	2.223	
1246.96860	60.20	2	16.611	
1265.87450	312.80	2	3.197	
1321.96450	77.00	3	25.974	
1329.80630	557.50	2	1.794	
1370.21950	54.20	2	18.450	
1417.67500	370.70	2	2.698	
1450.33130	815.60	3	2.452	
1465.74710	2155.80	9	3.711	
1477.40380	3715.30	8	1.884	
1495.62110	2176.20	5	1.838	
1626.51010	202.70	3	9.867	
1630.10140	339.10	2	2.949	
1654.51490	15.40	2	64.935	
1677.08650	568.90	2	1.758	
1714.17700	252.70	2	3.957	
1723.77090	45.20	3	44.248	
1748.45230	22.40	2	44.643	
1801.45560	233.90	2	4.275	
1817.00630	154.30	2	6.481	
1827.11510	2361.80	4	1.270	
1897.42570	92.70	3	21.575	
1933.31270	417.10	3	4.795	
1949.40050	368.60	2	2.713	
1987.90100	1446.90	6	3.456	
2004.45700	1289.30	9	6.205	
2041.86180	791.70	6	6.316	
2045.83110	613.50	4	4.890	
2109.45410	31.90	5	125.392	
2111.96180	438.40	6	11.405	
2116.47580	392.80	3	5.092	
2150.04810	235.10	3	8.507	
2160.55700	879.40	4	3.411	
2163.64930	1725.90	5	2.318	
2185.45610	584.30	2	1.711	
2190.45540	2928.90	7	2.049	
2196.30450	679.70	7	8.827	
2199.18230	1118.40	5	3.577	
2224.18690	176.00	2	5.682	
2237.90840	98.20	2	10.183	
2240.15840	186.50	2	5.362	
2250.24190	30.50	2	32.787	
2256.14540	2699.00	16	5.558	
2273.91000	206.20	2	4.850	
2291.69540	13.30	2	75.188	
2322.20230	178.60	4	16.797	
2337.55030	83.40	4	35.971	
2347.83980	326.40	2	3.064	
2357.59470	2457.10	6	2.035	
2362.84180	3413.70	7	1.758	
2371.04660	2120.00	23	10.377	
2384.46560	2021.40	4	1.484	
2389.09840	1601.00	4	1.874	
2423.67910	340.70	2	2.935	
2426.08680	307.40	2	3.253	
2443.75290	631.40	12	17.422	
2463.14110	582.60	3	3.433	
2470.56160	172.90	2	5.784	
2493.27150	110.90	9	72.137	
2504.29080	12.80	2	78.125	
2516.30450	144.70	2	6.911	
2519.83950	478.90	2	2.088	
2552.67670	1530.80	4	1.960	
2573.20720	146.90	3	13.615	
2636.82450	1707.40	9	4.685	
2646.53330	549.40	4	5.461	
2649.32610	558.00	2	1.792	
2703.02900	11.90	2	84.034	
2711.75220	13.70	2	72.993	

t	37	37	37	
	Duration	Count	Frequency	
[s]	[ms]	[-]	[Hz]	
45.31110	190.40	5	21.008	
74.53780	664.90	16	22.560	
135.09140	110.10	10	81.744	
315.25440	65.60	6	76.220	
550.87660	34.20	4	87.719	
599.49900	18.70	2	53.476	
758.57070	12.90	3	155.039	
812.93440	812.40	18	20.926	
883.47770	535.10	22	39.245	
976.95290	56.10	8	124.777	
1031.33830	13.50	2	74.074	
1094.21110	273.70	8	25.575	
1185.55010	74.60	2	13.405	
1413.33110	350.10	9	22.851	
1454.86110	13.90	2	71.942	
1477.33940	719.00	29	38.943	
1626.49920	567.80	26	44.030	
1748.41860	550.60	33	58.118	
1897.39840	555.30	28	48.622	
2250.23190	578.60	26	43.208	
2322.18520	561.30	14	23.161	
2337.55310	29.20	3	68.493	
2463.12340	602.20	33	53.138	
2638.33000	598.10	23	36.783	

t	38	38	38	
	Duration	Count	Frequency	
[s]	[ms]	[-]	[Hz]	
18.01040	451.10	9	17.734	
47.82890	36.30	4	82.645	
74.54450	1436.20	17	11.141	
95.37860	1431.20	24	16.070	
104.82870	388.40	20	48.919	
111.75980	129.40	2	7.728	
122.49090	28.50	4	105.263	
131.32370	53.40	6	93.633	
135.10920	33.60	2	29.762	
141.69340	290.50	3	6.885	
153.64490	542.70	7	11.056	
179.57000	481.40	3	4.155	
198.94820	430.40	5	9.294	
219.51060	670.50	4	4.474	
222.19680	281.90	7	21.284	
241.85770	260.60	2	3.837	
306.29730	105.70	7	56.764	
313.96950	284.40	5	14.065	
332.50040	374.50	7	16.021	
381.02140	642.40	5	6.227	
458.74840	24.20	3	82.645	
492.20890	435.60	7	13.774	
517.39180	411.50	6	12.151	
526.05440	38.30	5	104.439	
528.23580	15.20	4	197.368	
534.55220	71.50	6	69.930	
573.53410	33.80	3	59.172	
641.33790	50.30	5	79.523	
644.25190	10.40	2	96.154	
697.73850	161.60	2	6.188	
731.98000	381.40	9	20.975	
753.27880	24.60	2	40.650	
764.34180	95.70	3	20.899	
778.00340	285.30	2	3.505	
812.94640	682.30	8	10.259	
827.43180	487.50	5	8.205	
871.35690	20.40	4	147.059	
883.48490	208.90	12	52.657	
976.94450	31.20	4	96.154	
1003.15000	314.10	2	3.184	
1010.52610	46.40	2	21.552	
1043.59760	264.20	4	11.355	
1086.41830	251.90	12	43.668	
1205.47230	354.10	4	8.472	
1285.44940	1206.70	4	2.486	
1360.48550	2215.00	11	4.515	
1413.29320	16.10	4	186.335	
1474.41950	214.90	6	23.267	
1477.32320	696.50	15	20.101	
1497.85670	523.20	4	5.734	
1547.63160	35.60	2	28.090	
1559.00110	286.70	7	20.928	
1626.50950	180.30	8	38.824	
1684.02360	64.50	2	15.504	
1748.42120	537.20	10	16.754	
1788.44770	610.50	15	22.932	
1828.32430	604.20	9	13.241	
1863.75790	363.30	11	27.525	
1897.41830	393.00	5	10.178	
1917.73690	602.10	7	9.965	
1933.73070	169.60	2	5.896	
1967.91180	545.00	2	1.835	
2086.38600	361.10	15	38.770	
2154.85670	943.00	17	16.967	
2218.56680	547.10	2	1.828	
2250.23590	413.80	18	41.083	
2322.19750	489.60	14	26.552	
2374.36670	1950.40	9	4.102	
2463.12900	608.10	8	11.511	
2638.33450	153.00	6	32.680	
2667.75830	574.20	7	10.449	
2673.05770	197.90	2	5.053	
2678.65110	17.70	2	56.497	
2716.81450	369.70	6	13.524	
2728.15110	44.20	4	67.873	
2735.35380	2289.10	6	2.184	

t	41	41	41	
	Duration	Count	Frequency	
[s]	[ms]	[-]	[Hz]	

t	42	42	42	
	Duration	Count	Frequency	
[s]	[ms]	[-]	[Hz]	

t	43	43	43	
	Duration	Count	Frequency	
[s]	[ms]	[-]	[Hz]	

t	44	44	44	
	Duration	Count	Frequency	
[s]	[ms]	[-]	[Hz]	
74.55920	1240.00	22	16.935	
84.71770	1159.80	7	5.173	
136.93620	15.80	3	126.582	
272.44550	202.80	4	14.793	
374.85560	52.90	6	94.518	
529.15790	15.90	3	125.786	
626.02990	83.30	3	24.010	
809.83540	60.10	4	49.917	
812.93540	1171.00	26	21.349	
883.50070	1057.20	25	22.701	
939.81270	452.00	15	30.973	
999.27300	288.80	4	10.388	
1161.61190	245.70	7	24.420	
1467.35060	50.60	6	98.814	
1477.40010	1044.90	16	14.355	
1626.50610	576.50	4	5.204	
1748.43740	748.30	4	4.009	
1897.40840	861.60	3	2.321	
2250.24090	1020.80	10	8.817	
2322.19460	858.50	3	2.330	
2389.75000	283.70	3	7.050	
2463.11880	980.00	11	10.204	
2560.52480	76.30	8	91.743	
2623.49190	127.50	2	7.843	

t	45	45	45	
	Duration	Count	Frequency	
[s]	[ms]	[-]	[Hz]	
74.59900	483.20	9	16.556	
733.01000	48.60	5	82.305	
812.96870	387.40	8	18.069	
883.51800	420.50	7	14.269	
1040.52410	451.90	9	17.703	
1423.10660	82.30	4	36.452	
1477.42320	385.90	8	18.139	
1626.52930	303.90	6	16.453	
1748.45450	382.50	12	28.758	
1897.42860	332.50	10	27.068	
2250.25460	354.50	6	14.104	
2322.21070	362.60	13	33.094	
2463.14640	380.30	9	21.036	
2549.97310	21.90	2	45.662	
2638.34620	347.80	10	25.877	

t	46	46	46	
	Duration	Count	Frequency	
[s]	[ms]	[-]	[Hz]	
74.58690	368.60	5	10.852	
84.71700	52.30	2	19.120	
87.50150	40.90	2	24.450	
98.46910	1467.20	5	2.726	
257.22870	15.80	2	63.291	
266.42210	605.80	10	14.856	
422.37920	196.30	2	5.094	
513.68870	41.70	2	23.981	
598.14050	1390.60	5	2.876	
702.98830	79.20	2	12.626	
812.96810	164.60	6	30.377	
823.33450	116.70	2	8.569	
882.60120	938.70	4	3.196	
909.38780	475.90	2	2.101	
1168.31000	40.30	2	24.814	
1196.94350	250.30	2	3.995	
1240.13110	1349.90	4	2.222	
1321.96360	18.30	2	54.645	
1357.98540	17.60	4	170.455	
1370.22030	54.10	2	18.484	
1466.69240	1204.60	5	3.321	
1477.40990	32.80	2	30.488	
1479.83410	548.70	2	1.822	
1501.14870	201.20	14	64.612	
1626.51560	55.20	4	54.348	
1654.51540	15.20	2	65.789	
1721.77490	2040.90	5	1.960	
1748.45460	58.70	4	51.107	
1805.45530	50.50	4	59.406	
1829.41440	63.30	2	15.798	
1871.14760	62.50	2	16.000	
1897.42830	35.50	3	56.338	
2004.79880	853.70	6	5.857	
2150.04900	27.10	2	36.900	
2250.25040	326.20	13	36.787	
2258.71330	131.80	6	37.936	
2322.21010	50.30	3	39.761	
2337.55140	65.70	3	30.441	
2444.37220	17.20	2	58.140	
2463.08330	642.20	15	21.800	
2554.16720	127.70	3	15.662	
2573.20700	148.10	2	6.752	
2623.51860	31.00	4	96.774	
2638.34590	82.70	5	48.368	

t	47	47	47	
	Duration	Count	Frequency	
[s]	[ms]	[-]	[Hz]	
20.57820	53.70	2	18.622	
74.52030	1517.10	16	9.887	
85.51760	360.00	13	33.333	
99.45340	433.10	2	2.309	
107.78190	511.50	16	29.326	
122.52230	403.10	11	24.808	
161.40390	50.70	2	19.724	
216.81060	54.00	4	55.556	
318.06960	28.50	2	35.088	
407.99490	40.80	3	49.020	
513.73350	58.20	2	17.182	
529.12540	211.60	7	28.355	
599.50070	17.90	2	55.866	
678.15020	13.90	2	71.942	
758.55720	153.10	2	6.532	
812.86900	1627.30	22	12.905	
869.13400	22.00	3	90.909	
883.45610	1382.10	6	3.618	
1078.15230	40.40	3	49.505	
1148.27850	53.40	5	74.906	
1333.11320	13.30	3	150.376	
1346.86500	38.10	4	78.740	
1369.80210	473.60	2	2.111	
1413.32450	347.90	18	48.865	
1454.49810	380.80	14	34.139	
1477.34990	1571.30	21	12.728	
1569.11990	60.10	4	49.917	
1596.84320	20.90	3	95.694	
1617.15490	81.10	2	12.330	
1626.38830	1481.00	33	21.607	
1748.39370	1242.70	5	3.219	
1803.96520	38.40	3	52.083	
1897.37490	1356.50	29	20.641	
1937.42840	72.60	8	96.419	
2043.17470	90.30	3	22.148	
2115.54760	81.70	9	97.919	
2150.05080	14.80	2	67.568	
2250.20750	1424.10	14	9.129	
2322.16510	1230.20	9	6.503	
2337.55390	28.60	2	34.965	
2463.10170	1242.10	8	5.636	
2561.99800	28.60	3	69.930	
2637.32100	2169.50	8	3.227	
2729.93230	538.40	3	3.715	

t	48	48	48	
	Duration	Count	Frequency	
[s]	[ms]	[-]	[Hz]	
42.50220	421.10	5	9.499	
74.52640	799.70	11	12.505	
111.76010	571.00	3	3.503	
120.16170	3214.80	15	4.355	
129.43210	396.70	2	2.521	
135.83060	388.50	13	30.888	
176.88710	410.90	6	12.168	
179.57040	481.60	3	4.153	
207.77740	12.60	3	158.730	
240.53760	1319.80	12	8.335	
264.07060	96.70	2	10.341	
269.05490	25.50	4	117.647	
310.17860	244.00	2	4.098	
331.40830	11.60	3	172.414	
392.48810	1821.50	6	2.745	
405.32310	10.90	2	91.743	
440.48270	406.60	7	14.757	
497.24950	77.90	2	12.837	
516.35490	17.10	2	58.480	
599.50370	38.20	4	78.534	
621.56260	420.40	2	2.379	
687.68000	11.80	2	84.746	
812.86740	966.80	16	15.515	
883.43490	770.30	13	15.578	
915.81760	539.00	10	16.698	
919.86890	411.50	8	17.011	
1078.15690	38.50	4	77.922	
1126.49850	19.30	2	51.813	
1238.43470	178.50	3	11.204	
1315.12770	554.10	5	7.219	
1333.14060	10.80	3	185.185	
1388.26720	90.30	2	11.074	
1454.47670	1088.00	11	9.191	
1464.66090	10.90	2	91.743	
1476.87810	1823.10	8	3.840	
1505.51240	489.30	2	2.044	
1626.33100	950.50	6	5.260	
1679.87400	11.30	2	88.496	
1713.63430	200.40	2	4.990	
1738.98370	14.80	2	67.568	
1745.26330	297.40	3	6.725	
1748.40200	727.40	6	6.874	
1762.88560	294.20	6	16.995	
1788.34520	43.10	6	116.009	
1830.45070	465.50	2	2.148	
1841.54570	752.70	3	2.657	
1897.39390	721.50	7	8.316	
1937.47370	323.50	3	6.182	
1942.18580	21.70	4	138.249	
1989.08030	11.80	2	84.746	
2139.85230	38.00	4	78.947	
2175.67530	137.70	2	7.262	
2215.05170	528.90	2	1.891	
2219.81190	1035.80	16	14.482	
2244.48430	113.90	2	8.780	
2250.22010	807.80	11	12.379	
2266.71820	605.60	3	3.303	
2291.95700	312.20	2	3.203	
2296.93790	133.00	2	7.519	
2322.17220	695.50	11	14.378	
2347.85660	312.50	2	3.200	
2355.80180	18.80	3	106.383	
2375.47790	23.10	6	216.450	
2396.61260	12.10	2	82.645	
2400.71840	26.80	3	74.627	
2444.39900	64.30	2	15.552	
2463.11130	719.80	10	12.503	
2470.65630	271.70	2	3.681	
2475.59730	337.00	2	2.967	
2579.23970	445.50	17	35.915	
2602.49150	143.10	2	6.988	
2627.29110	368.50	2	2.714	
2637.07390	1981.40	13	6.056	
2737.48280	28.10	3	71.174	

t	51	51	51	
	Duration	Count	Frequency	
[s]	[ms]	[-]	[Hz]	
74.59390	539.10	17	29.679	
812.97300	569.40	15	24.587	
883.52840	537.50	10	16.744	
999.29270	19.20	2	52.083	
1477.43570	531.90	10	16.920	
1626.54100	505.30	5	7.916	
1748.45590	226.00	7	26.549	
1897.42630	514.40	10	17.496	
2250.27220	563.10	16	26.638	
2322.22730	515.30	11	19.406	
2463.16190	537.90	11	18.591	
2623.53030	47.30	4	63.425	

t	52	52	52	
	Duration	Count	Frequency	
[s]	[ms]	[-]	[Hz]	

t	53	53	53	
	Duration	Count	Frequency	
[s]	[ms]	[-]	[Hz]	

t	54	54	54	
	Duration	Count	Frequency	
[s]	[ms]	[-]	[Hz]	

t	55	55	55	
	Duration	Count	Frequency	
[s]	[ms]	[-]	[Hz]	
20.58080	48.80	3	40.984	
58.25250	27.60	3	72.464	
74.52530	1254.00	13	9.569	
84.71880	1158.90	15	12.080	
272.43120	212.30	8	32.972	
413.72140	211.90	6	23.596	
423.53600	655.10	20	29.003	
529.12510	59.00	3	33.898	
606.03340	112.50	14	115.556	
626.03570	39.40	2	25.381	
678.14730	2634.90	12	4.175	
727.38200	59.80	2	16.722	
758.56320	41.10	2	24.331	
812.86710	857.70	10	10.493	
847.92660	21.40	3	93.458	
883.47350	646.60	3	3.093	
999.29180	48.20	2	20.747	
1059.42530	75.70	8	92.470	
1078.11580	303.70	6	16.464	
1152.59890	44.70	5	89.485	
1236.08970	74.80	2	13.369	
1333.12870	30.50	2	32.787	
1346.94930	20.20	2	49.505	
1369.80730	17.80	4	168.539	
1413.33560	340.10	11	29.403	
1423.05360	352.20	11	28.393	
1477.35050	782.90	7	7.664	
1583.94240	17.60	3	113.636	
1586.09080	37.80	7	158.730	
1603.49270	22.20	2	45.045	
1626.42540	758.20	15	18.465	
1670.53820	526.90	14	24.673	
1748.40780	702.80	7	8.537	
1803.97670	16.40	2	60.976	
1897.38480	711.20	8	9.843	
1937.47050	17.20	2	58.140	
1948.72820	31.30	4	95.847	
2017.23220	27.00	4	111.111	
2150.05320	25.40	3	78.740	
2250.21700	754.10	10	11.935	
2322.17580	660.80	7	9.080	
2337.55300	27.40	2	36.496	
2389.74730	242.50	13	49.485	
2463.10060	697.40	18	24.376	
2623.46180	319.00	5	12.539	
2638.31100	1077.60	10	8.352	
2737.48510	10.30	3	194.175	

t	56	56	56	
	Duration	Count	Frequency	
[s]	[ms]	[-]	[Hz]	
20.57530	80.70	6	61.958	
74.52470	866.30	15	16.161	
85.54860	258.50	11	38.685	
97.19110	13.20	3	151.515	
122.53030	61.70	5	64.830	
207.76940	11.20	3	178.571	
272.43720	240.20	6	20.816	
491.09040	54.90	4	54.645	
606.02900	43.10	4	69.606	
812.85470	1025.00	13	11.707	
883.46960	705.80	7	8.501	
1073.79680	1625.60	4	1.845	
1078.09810	355.80	10	25.295	
1285.44790	37.10	4	80.863	
1333.09990	36.10	4	83.102	
1413.32920	402.90	17	39.712	
1423.05370	37.50	4	80.000	
1467.05520	363.10	2	2.754	
1473.77800	17.30	4	173.410	
1477.34930	917.40	11	10.900	
1501.27470	91.70	2	10.905	
1616.63410	219.90	5	18.190	
1626.41020	811.00	14	16.030	
1654.51680	17.10	2	58.480	
1748.40530	738.00	9	10.840	
1803.96800	35.80	3	55.866	
1813.44020	228.50	2	4.376	
1871.13930	14.60	2	68.493	
1897.37590	789.30	6	6.335	
2004.80140	784.00	4	3.827	
2150.04990	26.80	3	74.627	
2250.21570	897.60	16	16.711	
2322.16650	744.50	10	12.089	
2337.55180	28.50	2	35.088	
2463.10960	717.20	11	13.943	
2554.16830	41.00	2	24.390	
2623.45440	195.60	4	15.337	
2638.31050	787.00	11	12.706	

t	57	57	57	
	Duration	Count	Frequency	
[s]	[ms]	[-]	[Hz]	
20.57630	166.10	8	42.143	
74.51750	2017.20	48	23.300	
85.51260	364.80	12	30.154	
122.53000	397.70	11	25.145	
223.12700	13.20	3	151.515	
272.41640	54.40	4	55.147	
309.69820	14.00	3	142.857	
318.06890	25.60	3	78.125	
333.83450	18.60	2	53.763	
338.14400	49.70	3	40.241	
341.31300	38.70	3	51.680	
513.73010	37.50	5	106.667	
529.11790	246.00	11	40.650	
581.21510	14.40	2	69.444	
678.14660	35.80	2	27.933	
758.55530	208.60	12	52.733	
772.46320	96.30	2	10.384	
812.84540	2169.30	66	29.964	
869.12910	24.80	4	120.968	
883.45880	1751.70	27	14.843	
1050.59900	112.30	5	35.619	
1069.02320	34.50	4	86.957	
1078.06980	713.90	8	9.805	
1086.97630	465.70	12	23.620	
1148.28650	35.00	4	85.714	
1279.53850	21.40	2	46.729	
1333.09970	133.20	4	22.523	
1342.12790	84.50	5	47.337	
1346.86450	29.80	3	67.114	
1354.64100	517.50	13	23.188	
1413.32960	361.40	26	69.175	
1473.77120	612.10	3	3.267	
1477.35410	1950.00	50	25.128	
1626.36230	1941.00	53	26.790	
1673.75130	760.30	7	7.892	
1732.48510	10.40	2	96.154	
1748.39040	1724.10	32	17.980	
1803.96440	30.00	5	133.333	
1821.00910	40.60	2	24.631	
1871.19570	37.90	3	52.770	
1897.37590	1675.60	34	19.694	
1908.87290	381.90	18	44.514	
1919.61670	65.20	6	76.687	
1937.48770	12.10	3	165.289	
1951.88330	15.80	2	63.291	
2107.82240	24.20	3	82.645	
2250.21580	1810.30	36	19.334	
2322.16230	2352.30	23	9.353	
2336.79320	48.80	7	122.951	
2434.25860	410.30	13	29.247	
2463.10290	1750.00	27	14.857	
2543.35240	10.80	3	185.185	
2620.59370	12.00	3	166.667	
2623.45450	78.30	3	25.543	
2633.98120	24.80	3	80.645	
2638.30510	1630.60	38	22.691	
2641.97510	33.60	5	119.048	
2645.18140	26.60	2	37.594	
2737.47430	41.00	4	73.171	

t	58	58	58	
	Duration	Count	Frequency	
[s]	[ms]	[-]	[Hz]	
20.58390	28.20	3	70.922	
54.76360	366.10	10	24.583	
74.52470	892.30	9	8.966	
85.56750	43.40	6	115.207	
99.52220	51.30	4	58.480	
245.81360	102.20	5	39.139	
272.42120	36.20	2	27.624	
323.43740	78.50	4	38.217	
432.25460	48.40	4	61.983	
554.05830	19.40	4	154.639	
678.14960	39.60	3	50.505	
734.92320	20.70	3	96.618	
812.84960	1094.00	13	10.969	
883.45830	815.30	12	13.492	
1050.61800	14.10	2	70.922	
1078.09710	349.30	12	31.492	
1342.14040	35.50	5	112.676	
1346.87380	29.60	4	101.351	
1364.98590	281.40	6	17.768	
1413.33330	266.50	8	26.266	
1477.35090	977.10	11	10.234	
1626.28670	1883.00	52	27.084	
1673.75930	19.00	2	52.632	
1748.39920	855.60	13	14.025	
1897.39320	851.70	11	11.741	
1937.47310	23.90	4	125.523	
2250.21440	927.40	8	7.548	
2322.17070	2313.10	13	5.188	
2463.10470	850.20	10	10.586	
2579.28660	13.30	2	75.188	
2638.30840	860.30	11	11.624	

t	61	61	61	
	Duration	Count	Frequency	
[s]	[ms]	[-]	[Hz]	

t	62	62	62	
	Duration	Count	Frequency	
[s]	[ms]	[-]	[Hz]	
74.60360	580.50	19	31.008	
812.98550	587.50	27	44.255	
883.52340	548.00	12	20.073	
999.30350	28.10	4	106.762	
1477.41920	452.90	7	13.248	
1626.52490	503.90	20	37.706	
1748.48500	579.20	17	27.624	
1897.45700	484.70	9	16.505	
2250.25600	582.90	21	34.311	
2322.21370	520.30	12	21.142	
2463.15080	539.60	26	46.331	

t	63	63	63	
	Duration	Count	Frequency	
[s]	[ms]	[-]	[Hz]	
64.15490	14.30	2	69.930	
74.59680	703.00	17	22.760	
626.04420	46.10	5	86.768	
812.96250	732.40	32	42.327	
883.52480	590.60	16	25.398	
999.27820	193.10	4	15.536	
1161.56510	79.90	5	50.063	
1413.40220	11.00	2	90.909	
1477.41660	693.90	14	18.735	
1626.52540	705.00	17	22.695	
1748.45130	586.10	21	34.124	
1897.41980	697.10	20	27.256	
2250.25980	720.00	23	30.556	
2322.20310	588.10	16	25.506	
2389.75630	217.60	12	50.551	
2463.14300	721.80	18	23.552	
2623.50110	11.20	3	178.571	

t	64	64	64	
	Duration	Count	Frequency	
[s]	[ms]	[-]	[Hz]	
74.54810	749.40	11	13.344	
85.56880	13.50	2	74.074	
272.45620	12.30	2	81.301	
626.06540	10.30	2	97.087	
812.93190	778.90	41	51.354	
883.50390	598.60	9	13.365	
999.28710	57.20	3	34.965	
1161.61090	21.80	4	137.615	
1346.95700	19.20	3	104.167	
1413.38270	15.80	3	126.582	
1477.39860	768.10	24	29.944	
1626.50630	697.80	29	40.126	
1748.43520	655.40	23	33.567	
1897.41030	766.20	25	31.323	
2250.23520	732.30	31	40.967	
2322.19360	648.90	21	30.821	
2389.73110	260.40	5	15.361	
2463.12160	649.40	27	40.037	
2623.49330	193.70	7	30.976	

t	65	65	65	
	Duration	Count	Frequency	
[s]	[ms]	[-]	[Hz]	
74.53230	859.50	17	18.615	
85.54780	71.40	6	70.028	
812.88560	1001.20	24	22.972	
883.47940	730.80	12	15.052	
1078.13880	82.30	4	36.452	
1413.37230	16.40	5	243.902	
1477.35690	881.80	8	7.938	
1626.47730	800.60	11	12.491	
1748.41240	727.50	9	10.997	
1872.51900	283.80	8	24.665	
1897.39720	789.10	14	16.474	
2250.22610	891.00	15	15.713	
2322.18220	765.60	10	11.755	
2389.74500	58.70	9	136.286	
2463.10070	767.90	12	14.325	
2638.32120	790.50	12	13.915	

t	66	66	66	
	Duration	Count	Frequency	
[s]	[ms]	[-]	[Hz]	
20.58200	55.10	3	36.298	
74.52630	865.70	10	10.396	
85.55050	226.40	7	26.502	
207.77250	19.30	2	51.813	
272.43730	18.10	3	110.497	
301.18920	755.90	12	14.552	
678.15120	14.30	2	69.930	
812.85050	1031.20	10	8.728	
883.47100	773.50	13	15.514	
1078.10630	374.40	6	13.355	
1285.45130	15.50	3	129.032	
1333.12950	22.10	3	90.498	
1413.33060	360.10	10	24.993	
1477.34970	922.80	7	6.502	
1626.42550	900.70	13	13.323	
1748.40400	800.90	10	11.237	
1897.38590	830.50	7	7.225	
1937.45760	35.50	5	112.676	
2250.21840	917.70	13	13.076	
2322.17360	797.60	12	13.791	
2463.10120	818.00	9	9.780	
2623.45730	87.70	6	57.013	
2638.31160	821.90	12	13.384	

t	67	67	67	
	Duration	Count	Frequency	
[s]	[ms]	[-]	[Hz]	
74.53320	1183.60	18	14.363	
160.96340	810.30	23	27.150	
503.97810	488.70	17	32.740	
812.83740	1359.40	11	7.356	
883.46620	1050.20	9	7.618	
1078.06950	652.40	6	7.664	
1086.96540	502.20	15	27.877	
1354.64390	520.50	8	13.449	
1477.35840	608.00	10	14.803	
1626.39460	1168.30	24	19.687	
1748.41130	1037.20	8	6.749	
1897.41160	1041.30	11	9.603	
2250.22400	1118.10	11	8.944	
2322.19760	1008.10	11	9.920	
2463.10890	1061.60	7	5.652	
2638.31730	1109.80	15	12.615	

t	68	68	68	
	Duration	Count	Frequency	
[s]	[ms]	[-]	[Hz]	
74.53130	919.40	11	10.877	
99.31030	14.80	4	202.703	
108.57160	33.00	2	30.303	
504.01160	43.40	6	115.207	
523.53850	27.00	3	74.074	
529.13640	22.80	3	87.719	
589.13460	32.30	6	154.799	
812.85180	1063.60	10	8.462	
883.47060	829.10	13	14.474	
988.19250	55.10	3	36.298	
1078.11090	329.60	6	15.170	
1411.59690	28.50	3	70.175	
1477.34920	1016.00	14	12.795	
1626.39310	963.30	12	11.419	
1748.41180	881.70	9	9.073	
1897.39890	877.50	14	14.815	
2250.22620	910.60	10	9.884	
2322.17880	853.00	14	15.240	
2463.10630	872.70	9	9.167	
2638.31420	879.00	10	10.239	

t	71	71	71	
	Duration	Count	Frequency	
[s]	[ms]	[-]	[Hz]	

t	72	72	72	
	Duration	Count	Frequency	
[s]	[ms]	[-]	[Hz]	
74.60220	477.20	12	23.051	
167.30120	504.20	3	3.967	
176.07660	138.60	2	7.215	
812.97590	457.00	31	65.646	
883.51610	435.60	22	48.209	
1293.57520	508.30	15	27.543	
1477.41780	237.80	6	21.026	
1626.51860	377.40	10	23.847	
1748.44590	395.70	10	22.745	
1897.42000	300.00	10	30.000	
2090.98040	102.90	4	29.155	
2250.25390	544.10	6	9.189	
2322.20680	131.90	7	45.489	
2463.13940	24.70	5	161.943	

t	73	73	73	
	Duration	Count	Frequency	
[s]	[ms]	[-]	[Hz]	
74.59330	695.20	28	38.838	
812.96790	404.90	7	14.818	
883.51320	513.30	11	19.482	
1477.41170	441.30	8	15.862	
1626.51270	364.70	7	16.452	
1748.44410	367.60	6	13.602	
1897.41020	380.30	12	28.925	
2250.24790	732.30	6	6.828	
2322.20410	333.60	9	23.981	
2389.82530	29.70	4	101.010	
2463.13260	359.90	11	27.785	

t	74	74	74	
	Duration	Count	Frequency	
[s]	[ms]	[-]	[Hz]	
74.58850	772.90	18	21.995	
812.96610	1009.80	27	25.748	
883.50320	609.00	6	8.210	
1477.40750	905.20	18	18.780	
1626.51300	819.00	8	8.547	
1748.44710	476.70	4	6.293	
1897.40290	951.60	17	16.814	
2250.24380	1033.70	19	17.413	
2322.20130	725.50	6	6.892	
2463.13640	745.20	6	6.710	

t	75	75	75	
	Duration	Count	Frequency	
[s]	[ms]	[-]	[Hz]	
74.58160	867.50	21	23.055	
812.97000	1000.50	19	17.991	
883.51350	723.80	22	29.014	
1477.41070	935.00	26	26.738	
1626.51590	864.70	30	33.538	
1748.45670	896.20	23	24.548	
1897.42780	874.80	23	25.149	
2250.24980	1011.30	31	29.665	
2322.21060	796.40	21	25.113	
2463.12160	806.80	23	27.268	

t	76	76	76	
	Duration	Count	Frequency	
[s]	[ms]	[-]	[Hz]	
74.54300	821.60	19	21.908	
299.03010	766.00	33	41.775	
812.92300	887.50	18	19.155	
883.50340	689.70	11	14.499	
955.41400	460.80	22	45.573	
1477.37360	880.60	22	23.847	
1626.50700	770.30	17	20.771	
1748.43710	783.90	17	20.411	
1897.41510	787.70	18	21.582	
2250.24120	852.90	17	18.760	
2322.20260	766.70	17	20.869	
2463.11310	784.90	16	19.111	

t	77	77	77	
	Duration	Count	Frequency	
[s]	[ms]	[-]	[Hz]	
74.54880	730.40	12	15.060	
812.96550	731.50	8	9.569	
883.50260	601.60	10	14.960	
1477.39750	700.60	11	14.273	
1626.51400	619.20	10	14.535	
1748.43370	644.80	10	13.958	
1897.41840	651.80	7	9.205	
2250.24690	664.20	7	9.033	
2322.19200	547.50	10	16.438	
2463.14110	564.40	10	15.946	

t	78	78	78	
	Duration	Count	Frequency	
[s]	[ms]	[-]	[Hz]	
74.60300	329.70	18	51.562	
812.97610	385.90	18	44.053	
883.52530	271.20	15	51.622	
1477.41820	372.00	19	48.387	
1626.52880	323.20	17	49.505	
1748.46530	263.00	22	79.848	
1897.43710	281.80	18	60.326	
2250.26130	354.00	14	36.723	
2322.21680	302.80	15	46.235	
2463.15410	315.90	12	34.821	

t	82	82	82	
	Duration	Count	Frequency	
[s]	[ms]	[-]	[Hz]	
74.62850	280.90	11	35.600	
812.98870	437.90	14	29.687	
883.53890	280.10	10	32.131	
1477.42830	369.10	11	27.093	
1626.53890	355.90	14	36.527	
1748.47290	283.10	7	21.194	
1897.44330	332.60	16	45.099	
2250.26690	444.40	20	42.754	
2322.22700	291.00	13	41.237	
2463.15520	358.50	14	36.262	

t	83	83	83	
	Duration	Count	Frequency	
[s]	[ms]	[-]	[Hz]	

t	84	84	84	
	Duration	Count	Frequency	
[s]	[ms]	[-]	[Hz]	
74.59340	498.30	11	20.068	
812.96920	470.10	11	21.272	
883.50930	449.30	13	26.708	
1209.29430	132.10	4	22.710	
1477.41090	101.10	3	19.782	
1626.51390	358.10	10	25.133	
1748.44790	314.80	9	25.413	
1832.14520	95.80	3	20.877	
1897.41280	125.20	7	47.923	
2250.24820	106.30	5	37.629	
2322.20310	335.60	13	35.757	
2463.13880	353.80	5	11.306	
2623.54270	31.30	3	63.898	
2638.34260	359.00	7	16.713	

t	85	85	85	
	Duration	Count	Frequency	
[s]	[ms]	[-]	[Hz]	
74.59230	335.60	14	38.737	
812.96870	469.20	15	29.838	
883.50380	296.20	12	37.137	
1477.40950	487.70	18	34.857	
1626.51390	357.40	12	30.778	
1748.44800	367.60	14	35.365	
1897.41320	398.50	14	32.622	
2250.24770	432.40	16	34.690	
2322.20360	376.40	13	31.881	
2463.14200	388.10	14	33.497	

t	86	86	86	
	Duration	Count	Frequency	
[s]	[ms]	[-]	[Hz]	
74.61700	65.10	6	76.805	
812.99810	37.90	2	26.385	
883.53520	37.10	4	80.863	
1477.43530	48.40	4	61.983	
1626.54330	45.10	7	133.038	
1748.47390	49.30	4	60.852	
1897.44270	51.40	5	77.821	
2250.27250	44.10	5	90.703	
2463.16210	53.80	3	37.175	

t	87	87	87	
	Duration	Count	Frequency	
[s]	[ms]	[-]	[Hz]	
74.59200	431.00	16	34.803	
812.96790	387.00	7	15.504	
883.51620	299.30	10	30.070	
1477.40880	338.00	11	29.586	
1626.51800	294.30	15	47.571	
1748.45480	275.40	12	39.942	
1897.42640	289.00	14	44.983	
2250.25160	331.20	14	39.251	
2322.20790	294.70	17	54.293	
2463.14460	298.30	14	43.580	



Numerical Results:

Channel	Number Of Spikes	Number Of Bursts	% Spikes in Bursts	Mean Burst Duration	Mean Spikes In Bursts	 Mean Interburst Interval
				[ms]		[ms]
12	146	13	84.9	401.62	9.54	198652.09
13	198	18	94.4	451.33	10.39	149466.69
14	125	16	89.6	659.34	7.00	169238.92
15	0	0	NaN	NaN	NaN	NaN
16	2174	44	97.7	7445.00	48.27	56056.73
17	353	33	52.1	238.30	5.58	83811.09
21	140	20	87.9	550.87	6.15	133587.88
22	323	46	92.9	404.61	6.52	56571.83
23	89	12	86.5	449.21	6.42	216696.15
24	153	18	94.1	476.36	8.00	149444.96
25	0	0	NaN	NaN	NaN	NaN
26	1059	135	60.2	686.06	4.73	19382.39
27	109	13	78.0	85.35	6.54	198959.91
28	480	61	89.0	293.77	7.00	44708.47
31	3	0	0.0	NaN	NaN	NaN
32	0	0	NaN	NaN	NaN	NaN
33	0	0	NaN	NaN	NaN	NaN
34	242	25	91.7	432.12	8.88	105767.90
35	365	40	74.8	535.68	6.83	65547.78
36	905	114	51.7	715.46	4.11	22616.12
37	386	24	86.0	332.85	13.83	112418.64
38	659	76	75.7	411.54	6.57	35844.74
41	0	0	NaN	NaN	NaN	NaN
42	0	0	NaN	NaN	NaN	NaN
43	0	0	NaN	NaN	NaN	NaN
44	237	24	84.0	528.08	8.29	110277.66
45	126	15	93.7	316.39	7.87	182810.66
46	391	44	46.0	330.85	4.09	59285.68
47	405	44	82.7	478.61	7.61	62531.01
48	635	74	59.5	434.95	5.11	36477.02
51	133	12	88.7	425.53	9.83	231261.57
52	0	0	NaN	NaN	NaN	NaN
53	0	0	NaN	NaN	NaN	NaN
54	0	0	NaN	NaN	NaN	NaN
55	361	47	88.1	357.76	6.77	58697.82
56	312	38	78.5	376.88	6.45	70383.80
57	762	59	92.8	470.58	11.98	46365.08
58	295	31	86.8	457.63	8.26	86813.27
61	0	0	NaN	NaN	NaN	NaN
62	210	11	82.9	491.60	15.82	238367.92
63	262	17	86.6	430.07	13.35	159502.89
64	299	19	91.0	402.59	14.32	141193.87
65	188	16	93.6	594.88	11.00	170337.42
66	190	23	93.7	498.47	7.74	118503.94
67	220	16	92.7	919.98	12.75	170011.61
68	172	20	94.2	532.62	8.10	134421.55
71	0	0	NaN	NaN	NaN	NaN
72	156	14	91.7	331.10	10.21	183378.96
73	120	11	90.8	420.25	9.91	238427.64
74	136	10	94.9	804.86	12.90	264582.72
75	257	10	93.0	877.70	23.90	264507.76
76	243	12	93.4	771.05	18.92	216372.95
77	100	10	95.0	645.60	9.50	264744.52
78	177	10	94.9	319.95	16.80	265074.17
82	149	10	87.2	343.35	13.00	265050.19
83	0	0	NaN	NaN	NaN	NaN
84	109	14	95.4	266.49	7.43	196952.11
85	161	10	88.2	390.91	14.20	265003.19
86	46	9	87.0	48.02	4.44	298520.84
87	144	10	90.3	323.82	13.00	265068.08
